timestamp,acceleration_x,acceleration_y,acceleration_z,gyroscope_x,gyroscope_y,gyroscope_z,distance,strength,temperature
2026-05-03T13:48:37.806Z,-0.20735281705856323,1.2438565492630005,9.922866821289062,-0.0007692724466323853,0.0008145589381456375,5.17028383910656e-05,0,1978,45
2026-05-03T13:48:37.906Z,-0.19767239689826965,1.2486231327056885,9.90855884552002,-0.0003695860505104065,1.5171244740486145e-05,5.17028383910656e-05,0,1974,45
2026-05-03T13:48:38.006Z,-0.17831158638000488,1.2438565492630005,9.90855884552002,-0.00010311603546142578,0.00041486509144306183,5.17028383910656e-05,0,1978,45
2026-05-03T13:48:38.106Z,-0.20735281705856323,1.2390899658203125,9.932404518127441,-0.0003695860505104065,1.5171244740486145e-05,0.0009843213483691216,0,1974,45
2026-05-03T13:48:38.206Z,-0.19283220171928406,1.2486231327056885,9.90855884552002,-0.0005028173327445984,1.5171244740486145e-05,-8.15284438431263e-05,0,1982,45
2026-05-03T13:48:38.306Z,-0.18799199163913727,1.2104908227920532,9.927635192871094,-0.0003695860505104065,0.00014840252697467804,-0.0002147597260773182,0,1970,45
2026-05-03T13:48:38.406Z,-0.24123424291610718,1.229556918144226,9.918098449707031,-0.0005028173327445984,-0.0011839112266898155,0.0003181654028594494,0,1977,45
2026-05-03T13:48:38.506Z,-0.18315178155899048,1.2438565492630005,9.899023056030273,-0.0002363547682762146,1.5171244740486145e-05,-0.0003479910083115101,0,1976,45
2026-05-03T13:48:38.606Z,-0.226713627576828,1.229556918144226,9.89425277709961,-0.0006360486149787903,-0.00025129131972789764,-0.000481222290545702,0,1981,45
2026-05-03T13:48:38.706Z,-0.17831158638000488,1.229556918144226,9.918098449707031,-0.00010311603546142578,-0.00011806096881628036,5.17028383910656e-05,0,1981,45
2026-05-03T13:48:38.806Z,-0.20735281705856323,1.234323501586914,9.90855884552002,-0.001035742461681366,0.0002816328778862953,-0.0003479910083115101,0,1979,45
2026-05-03T13:48:38.906Z,-0.19767239689826965,1.229556918144226,9.922866821289062,-0.0006360486149787903,0.00041486509144306183,-0.0006144531071186066,0,1975,45
2026-05-03T13:48:39.006Z,-0.19283220171928406,1.2390899658203125,9.913329124450684,-0.0006360486149787903,-0.001050679013133049,-8.15284438431263e-05,0,1977,45
2026-05-03T13:48:39.106Z,-0.21219301223754883,1.2438565492630005,9.903791427612305,-0.0003695860505104065,1.5171244740486145e-05,-0.0006144531071186066,0,1976,45
2026-05-03T13:48:39.206Z,-0.19767239689826965,1.2629226446151733,9.918098449707031,-0.0005028173327445984,0.0008145589381456375,0.0012507843784987926,0,1969,45
2026-05-03T13:48:39.306Z,-0.19283220171928406,1.253389596939087,9.913329124450684,-0.001035742461681366,0.00041486509144306183,-0.0002147597260773182,0,1978,45
2026-05-03T13:48:39.406Z,-0.20735281705856323,1.2390899658203125,9.899023056030273,-0.0005028173327445984,0.00014840252697467804,0.0003181654028594494,0,1978,45
2026-05-03T13:48:39.506Z,-0.20735281705856323,1.234323501586914,9.922866821289062,-0.0007692724466323853,0.0002816328778862953,5.17028383910656e-05,0,1980,45
2026-05-03T13:48:39.606Z,-0.19767239689826965,1.2438565492630005,9.90855884552002,-0.0002363547682762146,-0.00025129131972789764,-0.0006144531071186066,0,1977,45
2026-05-03T13:48:39.706Z,-0.20735281705856323,1.2438565492630005,9.922866821289062,3.010779619216919e-05,0.0002816328778862953,-0.0002147597260773182,0,1968,45
2026-05-03T13:48:39.806Z,-0.18315178155899048,1.2438565492630005,9.899023056030273,-0.0005028173327445984,-0.000517754815518856,0.0001849341206252575,0,1977,45
2026-05-03T13:48:39.906Z,-0.2218734323978424,1.229556918144226,9.927635192871094,0.000296570360660553,-0.00025129131972789764,0.000451396219432354,0,1978,45
2026-05-03T13:48:40.006Z,-0.1734713762998581,1.229556918144226,9.903791427612305,-0.001035742461681366,0.0005480954423546791,0.0003181654028594494,0,1980,45
2026-05-03T13:48:40.106Z,-0.20735281705856323,1.234323501586914,9.903791427612305,-0.0009025111794471741,0.0010810205712914467,0.0015172464773058891,0,1974,45
2026-05-03T13:48:40.206Z,-0.21703322231769562,1.2438565492630005,9.913329124450684,-0.0005028173327445984,-0.00011806096881628036,0.0005846279673278332,0,1980,45
2026-05-03T13:48:40.306Z,-0.19283220171928406,1.2247904539108276,9.903791427612305,-0.001035742461681366,0.0002816328778862953,0.0003181654028594494,0,1972,45
2026-05-03T13:48:40.406Z,-0.21703322231769562,1.229556918144226,9.922866821289062,-0.0006360486149787903,-0.00038452260196208954,-0.0006144531071186066,0,1981,45
2026-05-03T13:48:40.506Z,-0.2218734323978424,1.2438565492630005,9.913329124450684,0.00016333907842636108,0.0010810205712914467,0.0003181654028594494,0,1979,45
2026-05-03T13:48:40.606Z,-0.19283220171928406,1.234323501586914,9.889483451843262,-0.00010311603546142578,1.5171244740486145e-05,0.0003181654028594494,0,1977,45
2026-05-03T13:48:40.706Z,-0.21219301223754883,1.2438565492630005,9.922866821289062,-0.0005028173327445984,1.5171244740486145e-05,-8.15284438431263e-05,0,1975,45
2026-05-03T13:48:40.806Z,-0.17831158638000488,1.2247904539108276,9.918098449707031,0.00016333907842636108,-0.00025129131972789764,0.0007178592495620251,0,1986,45
2026-05-03T13:48:40.906Z,-0.21703322231769562,1.234323501586914,9.90855884552002,-0.0005028173327445984,0.00041486509144306183,0.0003181654028594494,0,1980,45
2026-05-03T13:48:41.006Z,-0.18315178155899048,1.234323501586914,9.927635192871094,-0.0007692724466323853,-0.00011806096881628036,-8.15284438431263e-05,0,1978,45
2026-05-03T13:48:41.106Z,-0.19283220171928406,1.2438565492630005,9.90855884552002,-0.0002363547682762146,-0.0006509851664304733,-0.0010141469538211823,0,1978,45
2026-05-03T13:48:41.206Z,-0.19767239689826965,1.2390899658203125,9.918098449707031,0.00016333907842636108,-0.00011806096881628036,0.0007178592495620251,0,1979,45
2026-05-03T13:48:41.306Z,-0.19283220171928406,1.234323501586914,9.899023056030273,-0.0005028173327445984,0.0005480954423546791,-0.000481222290545702,0,1982,45
2026-05-03T13:48:41.406Z,-0.18315178155899048,1.234323501586914,9.889483451843262,-0.0002363547682762146,1.5171244740486145e-05,0.0007178592495620251,0,1981,45
2026-05-03T13:48:41.506Z,-0.19767239689826965,1.2152574062347412,9.899023056030273,-0.0006360486149787903,1.5171244740486145e-05,0.0008510900661349297,0,1987,45
2026-05-03T13:48:41.606Z,-0.19767239689826965,1.2438565492630005,9.899023056030273,-0.0005028173327445984,0.00014840252697467804,-8.15284438431263e-05,0,1987,45
2026-05-03T13:48:41.706Z,-0.19767239689826965,1.234323501586914,9.932404518127441,-0.0009025111794471741,0.0008145589381456375,0.0008510900661349297,0,1983,45
2026-05-03T13:48:41.806Z,-0.18799199163913727,1.2390899658203125,9.875177383422852,-0.0003695860505104065,-0.000517754815518856,0.0005846279673278332,0,1980,45
2026-05-03T13:48:41.906Z,-0.19283220171928406,1.229556918144226,9.899023056030273,-0.0003695860505104065,-0.00025129131972789764,-8.15284438431263e-05,0,1978,45
2026-05-03T13:48:42.006Z,-0.19767239689826965,1.2629226446151733,9.956250190734863,-0.002234824001789093,-0.0006509851664304733,-0.0002147597260773182,0,1981,45
2026-05-03T13:48:42.106Z,-0.15895076096057892,1.2486231327056885,9.903791427612305,-0.0013022050261497498,1.5171244740486145e-05,5.17028383910656e-05,0,1977,45
2026-05-03T13:48:42.206Z,-0.19767239689826965,1.234323501586914,9.903791427612305,-0.0002363547682762146,-0.00038452260196208954,-0.000481222290545702,0,1979,45
2026-05-03T13:48:42.306Z,-0.19283220171928406,1.229556918144226,9.922866821289062,0.0004298016428947449,-0.000517754815518856,0.0005846279673278332,0,1984,45
2026-05-03T13:48:42.406Z,-0.19283220171928406,1.253389596939087,9.903791427612305,-0.0006360486149787903,0.0002816328778862953,0.0007178592495620251,0,1986,45
2026-05-03T13:48:42.506Z,-0.2218734323978424,1.234323501586914,9.899023056030273,-0.0006360486149787903,-0.000517754815518856,-0.0006144531071186066,0,1987,45
2026-05-03T13:48:42.606Z,-0.18799199163913727,1.2390899658203125,9.913329124450684,-0.0013022050261497498,0.0002816328778862953,-0.0003479910083115101,0,1980,45
2026-05-03T13:48:42.706Z,-0.19767239689826965,1.234323501586914,9.922866821289062,-0.0006360486149787903,-0.00025129131972789764,0.000451396219432354,0,1982,45
2026-05-03T13:48:42.806Z,-0.20735281705856323,1.2438565492630005,9.89425277709961,-0.0002363547682762146,0.0005480954423546791,5.17028383910656e-05,0,1983,45
2026-05-03T13:48:42.906Z,-0.19767239689826965,1.229556918144226,9.899023056030273,-0.0005028173327445984,-0.0007842173799872398,5.17028383910656e-05,0,1982,45
2026-05-03T13:48:43.006Z,-0.20735281705856323,1.2200238704681396,9.932404518127441,-0.0011689737439155579,-0.000517754815518856,0.0001849341206252575,0,1984,45
2026-05-03T13:48:43.106Z,-0.226713627576828,1.229556918144226,9.88471508026123,3.010779619216919e-05,0.000681326724588871,0.0003181654028594494,0,1982,45
2026-05-03T13:48:43.206Z,-0.19767239689826965,1.2200238704681396,9.94194221496582,-0.0009025111794471741,-0.00025129131972789764,-0.0007476843893527985,0,1983,45
2026-05-03T13:48:43.306Z,-0.226713627576828,1.2390899658203125,9.90855884552002,-0.0002363547682762146,-0.000517754815518856,-8.15284438431263e-05,0,1979,45
2026-05-03T13:48:43.406Z,-0.18315178155899048,1.2200238704681396,9.8799467086792,-0.0011689737439155579,0.0002816328778862953,-0.0003479910083115101,0,1980,45
2026-05-03T13:48:43.506Z,-0.20735281705856323,1.2200238704681396,9.913329124450684,-0.0003695860505104065,-0.00011806096881628036,-0.0010141469538211823,0,1977,45
2026-05-03T13:48:43.606Z,-0.2315538376569748,1.234323501586914,9.899023056030273,3.010779619216919e-05,-0.0011839112266898155,0.0003181654028594494,0,1983,45
2026-05-03T13:48:43.706Z,-0.19283220171928406,1.229556918144226,9.932404518127441,0.00016333907842636108,-0.00038452260196208954,0.0003181654028594494,0,1981,45
2026-05-03T13:48:43.806Z,-0.19283220171928406,1.253389596939087,9.922866821289062,-0.001035742461681366,-0.0006509851664304733,0.0001849341206252575,0,1979,45
2026-05-03T13:48:43.906Z,-0.19283220171928406,1.234323501586914,9.89425277709961,-0.0002363547682762146,-0.00038452260196208954,0.000451396219432354,0,1989,45
2026-05-03T13:48:44.006Z,-0.21703322231769562,1.2200238704681396,9.889483451843262,-0.0005028173327445984,0.0005480954423546791,-0.0002147597260773182,0,1977,45
2026-05-03T13:48:44.106Z,-0.17831158638000488,1.2438565492630005,9.903791427612305,-0.0007692724466323853,0.0010810205712914467,-8.15284438431263e-05,0,1982,45
2026-05-03T13:48:44.206Z,-0.20251260697841644,1.2676892280578613,9.899023056030273,3.010779619216919e-05,-0.0009174477308988571,5.17028383910656e-05,0,1977,45
2026-05-03T13:48:44.306Z,-0.20251260697841644,1.2438565492630005,9.889483451843262,-0.0007692724466323853,0.0002816328778862953,0.000451396219432354,0,1982,45
2026-05-03T13:48:44.406Z,-0.17831158638000488,1.253389596939087,9.88471508026123,0.0005630329251289368,0.00041486509144306183,5.17028383910656e-05,0,1982,45
2026-05-03T13:48:44.506Z,-0.20735281705856323,1.2629226446151733,9.913329124450684,-0.0007692724466323853,-0.00025129131972789764,0.0007178592495620251,0,1976,45
2026-05-03T13:48:44.606Z,-0.20735281705856323,1.2247904539108276,9.932404518127441,-0.0002363547682762146,-0.000517754815518856,0.0009843213483691216,0,1983,45
2026-05-03T13:48:44.706Z,-0.1734713762998581,1.253389596939087,9.918098449707031,-0.00010311603546142578,1.5171244740486145e-05,0.0001849341206252575,0,1980,45
2026-05-03T13:48:44.806Z,-0.19767239689826965,1.234323501586914,9.899023056030273,-0.0002363547682762146,-0.0009174477308988571,0.0012507843784987926,0,1992,45
2026-05-03T13:48:44.906Z,-0.19283220171928406,1.2390899658203125,9.90855884552002,-0.0002363547682762146,-0.00038452260196208954,5.17028383910656e-05,0,1984,45
2026-05-03T13:48:45.006Z,-0.21703322231769562,1.2200238704681396,9.90855884552002,-0.0003695860505104065,1.5171244740486145e-05,-0.0002147597260773182,0,1982,45
2026-05-03T13:48:45.106Z,-0.21219301223754883,1.234323501586914,9.932404518127441,3.010779619216919e-05,-0.00038452260196208954,0.0003181654028594494,0,1987,45
2026-05-03T13:48:45.206Z,-0.1734713762998581,1.253389596939087,9.90855884552002,-0.0005028173327445984,-0.00011806096881628036,-0.000481222290545702,0,1981,45
2026-05-03T13:48:45.306Z,-0.2218734323978424,1.234323501586914,9.918098449707031,0.00016333907842636108,-0.0007842173799872398,-0.0010141469538211823,0,1977,45
2026-05-03T13:48:45.406Z,-0.19767239689826965,1.2200238704681396,9.918098449707031,-0.0011689737439155579,0.0005480954423546791,5.17028383910656e-05,0,1986,45
2026-05-03T13:48:45.506Z,-0.20251260697841644,1.2247904539108276,9.922866821289062,-0.00010311603546142578,-0.0006509851664304733,-8.15284438431263e-05,0,1978,45
2026-05-03T13:48:45.606Z,-0.19283220171928406,1.2438565492630005,9.932404518127441,-0.0006360486149787903,0.00041486509144306183,0.0003181654028594494,0,1981,45
2026-05-03T13:48:45.706Z,-0.19283220171928406,1.234323501586914,9.90855884552002,3.010779619216919e-05,0.00014840252697467804,-0.0010141469538211823,0,1976,45
2026-05-03T13:48:45.806Z,-0.21219301223754883,1.234323501586914,9.927635192871094,-0.0002363547682762146,0.0005480954423546791,5.17028383910656e-05,0,1983,45
2026-05-03T13:48:45.906Z,-0.19283220171928406,1.2438565492630005,9.94194221496582,-0.0009025111794471741,-0.00025129131972789764,-0.000481222290545702,0,1988,45
2026-05-03T13:48:46.006Z,-0.21703322231769562,1.253389596939087,9.913329124450684,-0.0003695860505104065,-0.00038452260196208954,-8.15284438431263e-05,0,1985,45
2026-05-03T13:48:46.106Z,-0.19767239689826965,1.2390899658203125,9.927635192871094,0.0005630329251289368,-0.0006509851664304733,0.0003181654028594494,0,1981,45
2026-05-03T13:48:46.206Z,-0.15895076096057892,1.2200238704681396,9.918098449707031,-0.0006360486149787903,-0.00011806096881628036,0.0003181654028594494,0,1979,45
2026-05-03T13:48:46.306Z,-0.21219301223754883,1.253389596939087,9.903791427612305,-0.0009025111794471741,1.5171244740486145e-05,0.0007178592495620251,0,1974,45
2026-05-03T13:48:46.406Z,-0.21219301223754883,1.234323501586914,9.88471508026123,-0.0002363547682762146,0.0010810205712914467,0.0008510900661349297,0,1983,45
2026-05-03T13:48:46.506Z,-0.18799199163913727,1.2438565492630005,9.90855884552002,3.010779619216919e-05,-0.0009174477308988571,0.0003181654028594494,0,1980,45
2026-05-03T13:48:46.606Z,-0.21219301223754883,1.2390899658203125,9.903791427612305,0.0005630329251289368,-0.00011806096881628036,0.0005846279673278332,0,1985,45
2026-05-03T13:48:46.706Z,-0.18799199163913727,1.2390899658203125,9.90855884552002,-0.0003695860505104065,-0.0007842173799872398,0.0012507843784987926,0,1978,45
2026-05-03T13:48:46.806Z,-0.20735281705856323,1.234323501586914,9.922866821289062,-0.0009025111794471741,-0.00038452260196208954,0.0011175530962646008,0,1985,45
2026-05-03T13:48:46.906Z,-0.21703322231769562,1.2247904539108276,9.918098449707031,-0.0002363547682762146,0.00014840252697467804,0.0005846279673278332,0,1982,45
2026-05-03T13:48:47.006Z,-0.20251260697841644,1.2486231327056885,9.918098449707031,3.010779619216919e-05,-0.00011806096881628036,-8.15284438431263e-05,0,1973,45
2026-05-03T13:48:47.106Z,-0.226713627576828,1.2629226446151733,9.90855884552002,-0.0007692724466323853,0.0005480954423546791,0.0003181654028594494,0,1976,45
2026-05-03T13:48:47.206Z,-0.18315178155899048,1.2390899658203125,9.927635192871094,0.0004298016428947449,0.0002816328778862953,-8.15284438431263e-05,0,1984,45
2026-05-03T13:48:47.306Z,-0.20735281705856323,1.234323501586914,9.937174797058105,0.000296570360660553,0.000681326724588871,5.17028383910656e-05,0,1979,45
2026-05-03T13:48:47.406Z,-0.20735281705856323,1.234323501586914,9.94194221496582,-0.0005028173327445984,-0.00011806096881628036,-8.15284438431263e-05,0,1987,45
2026-05-03T13:48:47.506Z,-0.20735281705856323,1.2200238704681396,9.932404518127441,-0.0006360486149787903,-0.0009174477308988571,-0.0007476843893527985,0,1983,45
2026-05-03T13:48:47.606Z,-0.20735281705856323,1.2152574062347412,9.918098449707031,-0.0014354288578033447,-0.00038452260196208954,-0.0002147597260773182,0,1980,45
2026-05-03T13:48:47.706Z,-0.20735281705856323,1.2247904539108276,9.922866821289062,-0.0007692724466323853,0.0002816328778862953,-0.0002147597260773182,0,1976,45
2026-05-03T13:48:47.806Z,-0.20251260697841644,1.234323501586914,9.927635192871094,-0.001035742461681366,-0.00011806096881628036,0.0001849341206252575,0,1974,45
2026-05-03T13:48:47.906Z,-0.19283220171928406,1.258156180381775,9.899023056030273,-0.0006360486149787903,-0.0006509851664304733,-0.0002147597260773182,0,1979,45
2026-05-03T13:48:48.006Z,-0.20251260697841644,1.2486231327056885,9.90855884552002,-0.0007692724466323853,-0.000517754815518856,-0.000481222290545702,0,1984,45
2026-05-03T13:48:48.106Z,-0.21219301223754883,1.2247904539108276,9.903791427612305,-0.0007692724466323853,-0.0009174477308988571,-0.0002147597260773182,0,1977,45
2026-05-03T13:48:48.206Z,-0.21219301223754883,1.229556918144226,9.922866821289062,-0.0002363547682762146,0.0002816328778862953,-0.0002147597260773182,0,1981,45
2026-05-03T13:48:48.306Z,-0.18315178155899048,1.234323501586914,9.913329124450684,-0.0003695860505104065,0.000681326724588871,0.0007178592495620251,0,1982,45
2026-05-03T13:48:48.406Z,-0.21219301223754883,1.2247904539108276,9.922866821289062,-0.0006360486149787903,0.0002816328778862953,-0.0006144531071186066,0,1983,45
2026-05-03T13:48:48.506Z,-0.19283220171928406,1.2486231327056885,9.927635192871094,-0.0003695860505104065,-0.00038452260196208954,0.0012507843784987926,0,1980,45
2026-05-03T13:48:48.606Z,-0.2218734323978424,1.253389596939087,9.899023056030273,-0.0003695860505104065,0.0005480954423546791,0.0003181654028594494,0,1981,45
2026-05-03T13:48:48.706Z,-0.20251260697841644,1.229556918144226,9.913329124450684,-0.0003695860505104065,1.5171244740486145e-05,0.0003181654028594494,0,1983,45
2026-05-03T13:48:48.806Z,-0.17831158638000488,1.2438565492630005,9.899023056030273,-0.0002363547682762146,-0.00025129131972789764,-8.15284438431263e-05,0,1990,45
2026-05-03T13:48:48.906Z,-0.21703322231769562,1.2152574062347412,9.903791427612305,0.000296570360660553,1.5171244740486145e-05,0.0003181654028594494,0,1983,45
2026-05-03T13:48:49.006Z,-0.18315178155899048,1.234323501586914,9.932404518127441,-0.00010311603546142578,-0.00038452260196208954,-0.0010141469538211823,0,1977,45
2026-05-03T13:48:49.106Z,-0.19767239689826965,1.2390899658203125,9.918098449707031,-0.0007692724466323853,0.0002816328778862953,-0.000481222290545702,0,1981,45
2026-05-03T13:48:49.206Z,-0.18799199163913727,1.2390899658203125,9.89425277709961,-0.001035742461681366,-0.00025129131972789764,-8.15284438431263e-05,0,1977,45
2026-05-03T13:48:49.306Z,-0.19767239689826965,1.2486231327056885,9.913329124450684,-0.0005028173327445984,-0.00038452260196208954,0.0005846279673278332,0,1985,45
2026-05-03T13:48:49.406Z,-0.19283220171928406,1.2438565492630005,9.932404518127441,-0.001035742461681366,-0.00038452260196208954,0.0001849341206252575,0,1989,45
2026-05-03T13:48:49.506Z,-0.18315178155899048,1.2390899658203125,9.913329124450684,-0.0009025111794471741,-0.00025129131972789764,5.17028383910656e-05,0,1990,45
2026-05-03T13:48:49.606Z,-0.19767239689826965,1.2152574062347412,9.932404518127441,0.00016333907842636108,0.00014840252697467804,-0.000481222290545702,0,1987,45
2026-05-03T13:48:49.706Z,-0.19767239689826965,1.234323501586914,9.922866821289062,-0.0006360486149787903,-0.0007842173799872398,-0.000481222290545702,0,1983,45
2026-05-03T13:48:49.806Z,-0.18315178155899048,1.2152574062347412,9.922866821289062,-0.0005028173327445984,-0.0009174477308988571,-0.0002147597260773182,0,1985,45
2026-05-03T13:48:49.906Z,-0.19767239689826965,1.258156180381775,9.913329124450684,-0.001035742461681366,-0.0009174477308988571,-0.000481222290545702,0,1984,45
2026-05-03T13:48:50.006Z,-0.18315178155899048,1.229556918144226,9.89425277709961,-0.0002363547682762146,0.0002816328778862953,-8.15284438431263e-05,0,1993,45
2026-05-03T13:48:50.106Z,-0.2218734323978424,1.234323501586914,9.903791427612305,-0.0009025111794471741,1.5171244740486145e-05,0.0007178592495620251,0,1986,45
2026-05-03T13:48:50.206Z,-0.17831158638000488,1.234323501586914,9.8799467086792,-0.0002363547682762146,-0.00011806096881628036,-0.0002147597260773182,0,1987,45
2026-05-03T13:48:50.306Z,-0.21219301223754883,1.2247904539108276,9.918098449707031,0.00016333907842636108,-0.0011839112266898155,-0.0002147597260773182,0,1993,45
2026-05-03T13:48:50.406Z,-0.21219301223754883,1.229556918144226,9.918098449707031,0.0004298016428947449,-0.00038452260196208954,0.0009843213483691216,0,1983,45
2026-05-03T13:48:50.506Z,-0.18315178155899048,1.234323501586914,9.918098449707031,-0.0002363547682762146,-0.0018500667065382004,0.0001849341206252575,0,1989,45
2026-05-03T13:48:50.606Z,-0.23639404773712158,1.2247904539108276,9.918098449707031,-0.0006360486149787903,-0.00025129131972789764,0.0005846279673278332,0,1985,45
2026-05-03T13:48:50.706Z,-0.20251260697841644,1.2152574062347412,9.932404518127441,-0.0002363547682762146,-0.000517754815518856,-0.0002147597260773182,0,1976,45
2026-05-03T13:48:50.806Z,-0.19283220171928406,1.234323501586914,9.922866821289062,-0.0002363547682762146,0.00041486509144306183,0.0001849341206252575,0,1981,45
2026-05-03T13:48:50.906Z,-0.20251260697841644,1.234323501586914,9.918098449707031,-0.0007692724466323853,0.0002816328778862953,0.0003181654028594494,0,1985,45
2026-05-03T13:48:51.006Z,-0.20735281705856323,1.234323501586914,9.903791427612305,-0.0009025111794471741,0.0005480954423546791,0.0005846279673278332,0,1987,45
2026-05-03T13:48:51.106Z,-0.21219301223754883,1.2390899658203125,9.89425277709961,-0.0006360486149787903,-0.0009174477308988571,0.0007178592495620251,0,1987,45
2026-05-03T13:48:51.206Z,-0.18799199163913727,1.234323501586914,9.90855884552002,0.00016333907842636108,0.0009477892890572548,5.17028383910656e-05,0,1986,45
2026-05-03T13:48:51.306Z,-0.19767239689826965,1.253389596939087,9.90855884552002,0.000296570360660553,-0.0007842173799872398,-0.0002147597260773182,0,1991,45
2026-05-03T13:48:51.406Z,-0.19283220171928406,1.2390899658203125,9.89425277709961,-0.0002363547682762146,0.0002816328778862953,0.0001849341206252575,0,1985,45
2026-05-03T13:48:51.506Z,-0.20251260697841644,1.229556918144226,9.90855884552002,-0.0007692724466323853,1.5171244740486145e-05,-0.0006144531071186066,0,1983,45
2026-05-03T13:48:51.606Z,-0.19283220171928406,1.2247904539108276,9.94194221496582,-0.0007692724466323853,0.0008145589381456375,0.0003181654028594494,0,1980,45
2026-05-03T13:48:51.706Z,-0.2218734323978424,1.234323501586914,9.889483451843262,-0.0011689737439155579,1.5171244740486145e-05,-8.15284438431263e-05,0,1988,45
2026-05-03T13:48:51.806Z,-0.18799199163913727,1.2247904539108276,9.899023056030273,-0.0005028173327445984,-0.000517754815518856,5.17028383910656e-05,0,1991,45
2026-05-03T13:48:51.906Z,-0.20735281705856323,1.229556918144226,9.90855884552002,3.010779619216919e-05,0.0009477892890572548,5.17028383910656e-05,0,1978,45
2026-05-03T13:48:52.006Z,-0.18799199163913727,1.253389596939087,9.922866821289062,-0.0005028173327445984,-0.0006509851664304733,-0.0008809161372482777,0,1982,45
2026-05-03T13:48:52.106Z,-0.20735281705856323,1.229556918144226,9.94194221496582,0.0006962642073631287,-0.000517754815518856,5.17028383910656e-05,0,1980,45
2026-05-03T13:48:52.206Z,-0.21703322231769562,1.234323501586914,9.932404518127441,-0.0005028173327445984,-0.0006509851664304733,-0.0002147597260773182,0,1987,45
2026-05-03T13:48:52.306Z,-0.18799199163913727,1.234323501586914,9.90855884552002,0.00016333907842636108,-0.00025129131972789764,-8.15284438431263e-05,0,1992,45
2026-05-03T13:48:52.406Z,-0.20735281705856323,1.234323501586914,9.937174797058105,-0.0006360486149787903,-0.00025129131972789764,0.0011175530962646008,0,1984,45
2026-05-03T13:48:52.506Z,-0.20735281705856323,1.2390899658203125,9.918098449707031,3.010779619216919e-05,-0.00011806096881628036,-0.001413840800523758,0,1984,45
2026-05-03T13:48:52.606Z,-0.19767239689826965,1.2200238704681396,9.918098449707031,-0.0003695860505104065,0.0005480954423546791,-0.000481222290545702,0,1993,45
2026-05-03T13:48:52.706Z,-0.2218734323978424,1.229556918144226,9.918098449707031,-0.001035742461681366,0.0008145589381456375,0.0005846279673278332,0,1986,45
2026-05-03T13:48:52.806Z,-0.19767239689826965,1.2486231327056885,9.922866821289062,-0.0009025111794471741,-0.00025129131972789764,0.000451396219432354,0,1982,45
2026-05-03T13:48:52.906Z,-0.18315178155899048,1.2486231327056885,9.927635192871094,-0.0006360486149787903,-0.00038452260196208954,5.17028383910656e-05,0,1992,45
2026-05-03T13:48:53.006Z,-0.20735281705856323,1.229556918144226,9.913329124450684,0.000296570360660553,0.00041486509144306183,-8.15284438431263e-05,0,1988,45
2026-05-03T13:48:53.106Z,-0.226713627576828,1.234323501586914,9.922866821289062,-0.0002363547682762146,0.00041486509144306183,-0.0006144531071186066,0,1991,45
2026-05-03T13:48:53.206Z,-0.20735281705856323,1.234323501586914,9.918098449707031,-0.0003695860505104065,-0.0009174477308988571,-0.000481222290545702,0,1987,45
2026-05-03T13:48:53.306Z,-0.1686311662197113,1.253389596939087,9.90855884552002,0.0004298016428947449,0.0012142518535256386,-0.0002147597260773182,0,1988,45
2026-05-03T13:48:53.406Z,-0.20735281705856323,1.2486231327056885,9.94194221496582,-0.0003695860505104065,0.0005480954423546791,5.17028383910656e-05,0,1989,45
2026-05-03T13:48:53.506Z,-0.19283220171928406,1.2486231327056885,9.927635192871094,0.0013624206185340881,1.5171244740486145e-05,-0.0003479910083115101,0,1984,45
2026-05-03T13:48:53.606Z,-0.21219301223754883,1.2390899658203125,9.913329124450684,-0.0007692724466323853,-0.00038452260196208954,-0.000481222290545702,0,1992,45
2026-05-03T13:48:53.706Z,-0.20735281705856323,1.2247904539108276,9.922866821289062,0.0004298016428947449,-0.000517754815518856,-0.0008809161372482777,0,1988,45
2026-05-03T13:48:53.806Z,-0.18799199163913727,1.2438565492630005,9.927635192871094,-0.0009025111794471741,0.00014840252697467804,-8.15284438431263e-05,0,1986,45
2026-05-03T13:48:53.906Z,-0.19767239689826965,1.2200238704681396,9.922866821289062,-0.0005028173327445984,-0.00038452260196208954,-0.0002147597260773182,0,1983,45
2026-05-03T13:48:54.006Z,-0.18799199163913727,1.2486231327056885,9.89425277709961,0.00016333907842636108,0.0002816328778862953,-0.000481222290545702,0,1990,45
2026-05-03T13:48:54.106Z,-0.17831158638000488,1.2200238704681396,9.903791427612305,-0.0002363547682762146,0.0002816328778862953,0.0001849341206252575,0,1988,45
2026-05-03T13:48:54.206Z,-0.21703322231769562,1.2247904539108276,9.922866821289062,-0.00010311603546142578,-0.00038452260196208954,-0.0008809161372482777,0,1982,45
2026-05-03T13:48:54.306Z,-0.20251260697841644,1.229556918144226,9.90855884552002,-0.0006360486149787903,-0.00011806096881628036,-8.15284438431263e-05,0,1981,45
2026-05-03T13:48:54.406Z,-0.20251260697841644,1.2247904539108276,9.918098449707031,-0.0007692724466323853,0.0012142518535256386,0.000451396219432354,0,1984,45
2026-05-03T13:48:54.506Z,-0.20251260697841644,1.2486231327056885,9.918098449707031,-0.0005028173327445984,-0.00011806096881628036,-0.0002147597260773182,0,1985,45
2026-05-03T13:48:54.606Z,-0.20251260697841644,1.2486231327056885,9.88471508026123,-0.0009025111794471741,0.0002816328778862953,-0.0002147597260773182,0,1989,45
2026-05-03T13:48:54.706Z,-0.19767239689826965,1.2247904539108276,9.903791427612305,3.010779619216919e-05,0.000681326724588871,0.0003181654028594494,0,1991,45
2026-05-03T13:48:54.806Z,-0.19283220171928406,1.2438565492630005,9.913329124450684,0.0004298016428947449,-0.000517754815518856,0.0003181654028594494,0,1985,45
2026-05-03T13:48:54.906Z,-0.19767239689826965,1.2247904539108276,9.94194221496582,0.00016333907842636108,0.00014840252697467804,0.0001849341206252575,0,1984,45
2026-05-03T13:48:55.006Z,-0.2218734323978424,1.2486231327056885,9.903791427612305,-0.001035742461681366,0.00014840252697467804,0.0003181654028594494,0,1987,45
2026-05-03T13:48:55.106Z,-0.21219301223754883,1.234323501586914,9.94194221496582,-0.0006360486149787903,-0.00025129131972789764,0.0008510900661349297,0,1987,45
2026-05-03T13:48:55.206Z,-0.19767239689826965,1.2390899658203125,9.903791427612305,-0.0011689737439155579,0.00041486509144306183,0.0009843213483691216,0,1980,45
2026-05-03T13:48:55.306Z,-0.19283220171928406,1.258156180381775,9.918098449707031,-0.0009025111794471741,-0.0017168354243040085,0.000451396219432354,0,1993,45
2026-05-03T13:48:55.406Z,-0.2218734323978424,1.234323501586914,9.899023056030273,-0.0009025111794471741,1.5171244740486145e-05,0.0003181654028594494,0,1983,45
2026-05-03T13:48:55.506Z,-0.20251260697841644,1.2438565492630005,9.90855884552002,-0.0007692724466323853,1.5171244740486145e-05,0.0005846279673278332,0,1988,45
2026-05-03T13:48:55.606Z,-0.19767239689826965,1.2390899658203125,9.922866821289062,-0.0007692724466323853,-0.00025129131972789764,-0.0003479910083115101,0,1992,45
2026-05-03T13:48:55.706Z,-0.20735281705856323,1.234323501586914,9.927635192871094,-0.001035742461681366,-0.00011806096881628036,0.0003181654028594494,0,1990,45
2026-05-03T13:48:55.806Z,-0.17831158638000488,1.2438565492630005,9.913329124450684,-0.00010311603546142578,-0.00038452260196208954,-0.0006144531071186066,0,1987,45
2026-05-03T13:48:55.906Z,-0.20735281705856323,1.2200238704681396,9.918098449707031,-0.0006360486149787903,-0.00011806096881628036,0.000451396219432354,0,1995,45
2026-05-03T13:48:56.006Z,-0.19283220171928406,1.2247904539108276,9.913329124450684,-0.0002363547682762146,-0.000517754815518856,5.17028383910656e-05,0,1985,45
2026-05-03T13:48:56.106Z,-0.21219301223754883,1.2438565492630005,9.927635192871094,-0.0009025111794471741,-0.0006509851664304733,0.0003181654028594494,0,1986,45
2026-05-03T13:48:56.206Z,-0.20735281705856323,1.2390899658203125,9.927635192871094,-0.0005028173327445984,-0.00011806096881628036,5.17028383910656e-05,0,1980,45
2026-05-03T13:48:56.306Z,-0.19283220171928406,1.2390899658203125,9.913329124450684,3.010779619216919e-05,0.0008145589381456375,-0.000481222290545702,0,1986,45
2026-05-03T13:48:56.406Z,-0.2218734323978424,1.2247904539108276,9.918098449707031,3.010779619216919e-05,-0.0007842173799872398,0.000451396219432354,0,1983,45
2026-05-03T13:48:56.506Z,-0.1637909710407257,1.2152574062347412,9.913329124450684,-0.0006360486149787903,-0.00025129131972789764,0.0001849341206252575,0,1981,45
2026-05-03T13:48:56.606Z,-0.18799199163913727,1.2438565492630005,9.889483451843262,0.00016333907842636108,-0.00011806096881628036,0.000451396219432354,0,1991,45
2026-05-03T13:48:56.706Z,-0.20735281705856323,1.2390899658203125,9.89425277709961,-0.00010311603546142578,0.00041486509144306183,5.17028383910656e-05,0,1982,45
2026-05-03T13:48:56.806Z,-0.18799199163913727,1.234323501586914,9.918098449707031,-0.0002363547682762146,-0.00025129131972789764,0.0008510900661349297,0,1980,45
2026-05-03T13:48:56.906Z,-0.20735281705856323,1.2247904539108276,9.903791427612305,-0.0007692724466323853,0.0002816328778862953,0.0015172464773058891,0,1980,45
2026-05-03T13:48:57.006Z,-0.19283220171928406,1.2486231327056885,9.937174797058105,-0.0005028173327445984,1.5171244740486145e-05,0.0009843213483691216,0,1987,45
2026-05-03T13:48:57.106Z,-0.21219301223754883,1.2390899658203125,9.913329124450684,-0.0002363547682762146,-0.00011806096881628036,0.0001849341206252575,0,1987,45
2026-05-03T13:48:57.206Z,-0.2315538376569748,1.2390899658203125,9.90855884552002,-0.0003695860505104065,0.00014840252697467804,5.17028383910656e-05,0,1991,45
2026-05-03T13:48:57.306Z,-0.20251260697841644,1.2438565492630005,9.899023056030273,0.0005630329251289368,-0.0006509851664304733,-0.000481222290545702,0,1984,45
2026-05-03T13:48:57.406Z,-0.20251260697841644,1.234323501586914,9.937174797058105,-0.0003695860505104065,1.5171244740486145e-05,-8.15284438431263e-05,0,1985,45
2026-05-03T13:48:57.506Z,-0.21219301223754883,1.229556918144226,9.90855884552002,-0.0007692724466323853,-0.0007842173799872398,0.0003181654028594494,0,1986,45
2026-05-03T13:48:57.606Z,-0.18799199163913727,1.2390899658203125,9.90855884552002,-0.0009025111794471741,0.00014840252697467804,0.0015172464773058891,0,1987,45
2026-05-03T13:48:57.706Z,-0.19283220171928406,1.2200238704681396,9.90855884552002,-0.0003695860505104065,-0.0006509851664304733,5.17028383910656e-05,0,1984,45
2026-05-03T13:48:57.806Z,-0.17831158638000488,1.229556918144226,9.913329124450684,-0.0002363547682762146,-0.00038452260196208954,-0.0002147597260773182,0,1983,45
2026-05-03T13:48:57.906Z,-0.21703322231769562,1.2676892280578613,9.90855884552002,-0.001035742461681366,-0.00038452260196208954,-0.0002147597260773182,0,1987,45
2026-05-03T13:48:58.006Z,-0.18799199163913727,1.2486231327056885,9.913329124450684,0.000296570360660553,0.000681326724588871,-0.0007476843893527985,0,1990,45
2026-05-03T13:48:58.106Z,-0.18799199163913727,1.2486231327056885,9.913329124450684,-0.0013022050261497498,-0.00025129131972789764,-8.15284438431263e-05,0,1991,45
2026-05-03T13:48:58.206Z,-0.20251260697841644,1.253389596939087,9.932404518127441,-0.0007692724466323853,1.5171244740486145e-05,-8.15284438431263e-05,0,1991,45
2026-05-03T13:48:58.306Z,-0.19767239689826965,1.2486231327056885,9.922866821289062,-0.0006360486149787903,-0.0006509851664304733,0.0001849341206252575,0,1983,45
2026-05-03T13:48:58.406Z,-0.19767239689826965,1.234323501586914,9.918098449707031,-0.0013022050261497498,0.00041486509144306183,0.0008510900661349297,0,1990,45
2026-05-03T13:48:58.506Z,-0.20251260697841644,1.234323501586914,9.922866821289062,-0.0006360486149787903,1.5171244740486145e-05,0.0003181654028594494,0,1984,45
2026-05-03T13:48:58.606Z,-0.21703322231769562,1.2438565492630005,9.932404518127441,-0.0009025111794471741,-0.00025129131972789764,0.0005846279673278332,0,1984,45
2026-05-03T13:48:58.706Z,-0.2218734323978424,1.2390899658203125,9.932404518127441,-0.0002363547682762146,-0.00038452260196208954,0.000451396219432354,0,1986,45
2026-05-03T13:48:58.806Z,-0.19283220171928406,1.234323501586914,9.903791427612305,0.0006962642073631287,-0.00025129131972789764,0.0003181654028594494,0,1987,45
2026-05-03T13:48:58.906Z,-0.20735281705856323,1.2438565492630005,9.922866821289062,-0.0002363547682762146,-0.0007842173799872398,-0.0006144531071186066,0,1984,45
2026-05-03T13:48:59.006Z,-0.20251260697841644,1.2486231327056885,9.946710586547852,-0.0005028173327445984,0.0009477892890572548,0.0005846279673278332,0,1983,45
2026-05-03T13:48:59.106Z,-0.18315178155899048,1.2438565492630005,9.913329124450684,-0.001035742461681366,-0.0009174477308988571,0.0003181654028594494,0,1981,45
2026-05-03T13:48:59.206Z,-0.21703322231769562,1.2486231327056885,9.946710586547852,0.00016333907842636108,-0.00025129131972789764,0.000451396219432354,0,1977,45
2026-05-03T13:48:59.306Z,-0.21703322231769562,1.2390899658203125,9.932404518127441,3.010779619216919e-05,-0.0009174477308988571,0.000451396219432354,0,1985,45
2026-05-03T13:48:59.406Z,-0.21219301223754883,1.229556918144226,9.922866821289062,0.000296570360660553,1.5171244740486145e-05,0.000451396219432354,0,1983,45
2026-05-03T13:48:59.506Z,-0.19767239689826965,1.253389596939087,9.918098449707031,-0.0006360486149787903,-0.00038452260196208954,0.0013840151950716972,0,1986,45
2026-05-03T13:48:59.606Z,-0.17831158638000488,1.2390899658203125,9.918098449707031,0.000296570360660553,0.00014840252697467804,-0.0007476843893527985,0,1987,45
2026-05-03T13:48:59.706Z,-0.2218734323978424,1.229556918144226,9.927635192871094,-0.0002363547682762146,-0.000517754815518856,-8.15284438431263e-05,0,1980,45
2026-05-03T13:48:59.806Z,-0.18315178155899048,1.2438565492630005,9.899023056030273,-0.00010311603546142578,0.0002816328778862953,0.0008510900661349297,0,1990,45
2026-05-03T13:48:59.906Z,-0.19283220171928406,1.234323501586914,9.90855884552002,-0.00010311603546142578,1.5171244740486145e-05,-0.0002147597260773182,0,1982,45
2026-05-03T13:49:00.006Z,-0.19767239689826965,1.234323501586914,9.903791427612305,0.000296570360660553,-0.0009174477308988571,-0.0006144531071186066,0,1988,45
2026-05-03T13:49:00.106Z,-0.20251260697841644,1.2247904539108276,9.918098449707031,3.010779619216919e-05,-0.0009174477308988571,0.0001849341206252575,0,1988,45
2026-05-03T13:49:00.206Z,-0.19283220171928406,1.2390899658203125,9.922866821289062,-0.0007692724466323853,0.000681326724588871,0.0001849341206252575,0,1993,45
2026-05-03T13:49:00.306Z,-0.20251260697841644,1.253389596939087,9.927635192871094,3.010779619216919e-05,-0.001050679013133049,-8.15284438431263e-05,0,1977,45
2026-05-03T13:49:00.406Z,-0.19767239689826965,1.2390899658203125,9.937174797058105,-0.0007692724466323853,-0.00011806096881628036,5.17028383910656e-05,0,1990,45
2026-05-03T13:49:00.506Z,-0.18799199163913727,1.2867553234100342,9.937174797058105,-0.0017018988728523254,-0.00025129131972789764,0.000451396219432354,0,1994,45
2026-05-03T13:49:00.606Z,-0.21703322231769562,1.2247904539108276,9.89425277709961,-0.0005028173327445984,0.0010810205712914467,0.0007178592495620251,0,1984,45
2026-05-03T13:49:00.706Z,-0.2315538376569748,1.2009577751159668,9.899023056030273,-0.0009025111794471741,1.5171244740486145e-05,-0.0015470720827579498,0,1984,45
2026-05-03T13:49:00.806Z,-0.19767239689826965,1.253389596939087,9.899023056030273,-0.0003695860505104065,-0.000517754815518856,0.0011175530962646008,0,1988,45
2026-05-03T13:49:00.906Z,-0.19767239689826965,1.2200238704681396,9.903791427612305,-0.0006360486149787903,0.00041486509144306183,-0.000481222290545702,0,1982,45
2026-05-03T13:49:01.006Z,-0.19767239689826965,1.234323501586914,9.951480865478516,-0.00010311603546142578,-0.000517754815518856,0.0008510900661349297,0,1985,45
2026-05-03T13:49:01.106Z,-0.20251260697841644,1.229556918144226,9.899023056030273,-0.0006360486149787903,1.5171244740486145e-05,0.000451396219432354,0,1985,45
2026-05-03T13:49:01.206Z,-0.21703322231769562,1.2247904539108276,9.913329124450684,-0.0002363547682762146,-0.000517754815518856,0.0001849341206252575,0,1980,45
2026-05-03T13:49:01.306Z,-0.18315178155899048,1.2247904539108276,9.937174797058105,0.0005630329251289368,-0.000517754815518856,0.000451396219432354,0,1984,45
2026-05-03T13:49:01.406Z,-0.2218734323978424,1.234323501586914,9.913329124450684,-0.001035742461681366,0.00014840252697467804,-8.15284438431263e-05,0,1988,45
2026-05-03T13:49:01.506Z,-0.21703322231769562,1.2247904539108276,9.88471508026123,3.010779619216919e-05,0.00014840252697467804,0.0008510900661349297,0,1985,45
2026-05-03T13:49:01.606Z,-0.20251260697841644,1.2247904539108276,9.913329124450684,-0.0002363547682762146,-0.00025129131972789764,-0.0003479910083115101,0,1992,45
2026-05-03T13:49:01.706Z,-0.21703322231769562,1.2247904539108276,9.913329124450684,-0.0003695860505104065,1.5171244740486145e-05,0.0013840151950716972,0,1984,45
2026-05-03T13:49:01.806Z,-0.21219301223754883,1.229556918144226,9.90855884552002,3.010779619216919e-05,0.00014840252697467804,5.17028383910656e-05,0,1984,45
2026-05-03T13:49:01.906Z,-0.20735281705856323,1.2438565492630005,9.89425277709961,-0.00010311603546142578,0.0002816328778862953,0.0001849341206252575,0,1979,45
2026-05-03T13:49:02.006Z,-0.19283220171928406,1.253389596939087,9.913329124450684,0.00016333907842636108,-0.00038452260196208954,5.17028383910656e-05,0,1988,45
2026-05-03T13:49:02.106Z,-0.19767239689826965,1.229556918144226,9.932404518127441,-0.0005028173327445984,-0.00011806096881628036,0.0003181654028594494,0,1986,45
2026-05-03T13:49:02.206Z,-0.19283220171928406,1.2486231327056885,9.903791427612305,-0.0013022050261497498,-0.0013171415776014328,0.0003181654028594494,0,1984,45
2026-05-03T13:49:02.306Z,-0.21703322231769562,1.1866581439971924,9.889483451843262,-0.0011689737439155579,-0.0014503728598356247,-0.001280609518289566,0,1982,45
2026-05-03T13:49:02.406Z,-0.21703322231769562,1.2390899658203125,9.932404518127441,-0.0005028173327445984,0.0005480954423546791,-0.0007476843893527985,0,1992,45
2026-05-03T13:49:02.506Z,-0.19283220171928406,1.2486231327056885,9.889483451843262,0.0008294954895973206,0.00014840252697467804,-0.0003479910083115101,0,1984,45
2026-05-03T13:49:02.606Z,-0.2218734323978424,1.2247904539108276,9.903791427612305,-0.0002363547682762146,-0.0015836041420698166,-0.000481222290545702,0,1974,45
2026-05-03T13:49:02.706Z,-0.2315538376569748,1.2104908227920532,9.88471508026123,-0.0014354288578033447,-0.0006509851664304733,-0.0002147597260773182,0,1980,45
2026-05-03T13:49:02.806Z,-0.18315178155899048,1.2247904539108276,9.889483451843262,0.0008294954895973206,-0.00025129131972789764,0.0003181654028594494,0,1987,45
2026-05-03T13:49:02.906Z,-0.2218734323978424,1.253389596939087,9.946710586547852,-0.0002363547682762146,-0.0007842173799872398,-0.0003479910083115101,0,1985,45
2026-05-03T13:49:03.006Z,-0.19283220171928406,1.2390899658203125,9.932404518127441,-0.0005028173327445984,-0.00011806096881628036,-0.0007476843893527985,0,1982,45
2026-05-03T13:49:03.106Z,-0.18315178155899048,1.2390899658203125,9.927635192871094,-0.0006360486149787903,-0.001050679013133049,-8.15284438431263e-05,0,1992,45
2026-05-03T13:49:03.206Z,-0.20251260697841644,1.2486231327056885,9.922866821289062,-0.0009025111794471741,0.00041486509144306183,0.0005846279673278332,0,1983,45
2026-05-03T13:49:03.306Z,-0.20735281705856323,1.2486231327056885,9.922866821289062,-0.00010311603546142578,-0.000517754815518856,0.0001849341206252575,0,1976,45
2026-05-03T13:49:03.406Z,-0.21219301223754883,1.229556918144226,9.89425277709961,-0.0005028173327445984,0.00041486509144306183,0.0005846279673278332,0,1984,45
2026-05-03T13:49:03.506Z,-0.17831158638000488,1.234323501586914,9.918098449707031,0.000296570360660553,-0.00011806096881628036,0.000451396219432354,0,1984,45
2026-05-03T13:49:03.606Z,-0.21703322231769562,1.2390899658203125,9.913329124450684,0.00016333907842636108,0.00041486509144306183,0.0009843213483691216,0,1984,45
2026-05-03T13:49:03.706Z,-0.20251260697841644,1.2247904539108276,9.889483451843262,-0.0009025111794471741,-0.00025129131972789764,0.0008510900661349297,0,1981,45
2026-05-03T13:49:03.806Z,-0.18315178155899048,1.2486231327056885,9.918098449707031,-0.0002363547682762146,1.5171244740486145e-05,-8.15284438431263e-05,0,1983,45
2026-05-03T13:49:03.906Z,-0.20735281705856323,1.253389596939087,9.90855884552002,3.010779619216919e-05,-0.0009174477308988571,0.0001849341206252575,0,1979,45
2026-05-03T13:49:04.006Z,-0.21219301223754883,1.2486231327056885,9.90855884552002,0.0004298016428947449,0.00014840252697467804,0.000451396219432354,0,1983,45
2026-05-03T13:49:04.106Z,-0.19283220171928406,1.2247904539108276,9.903791427612305,-0.0006360486149787903,-0.00025129131972789764,0.0007178592495620251,0,1984,45
2026-05-03T13:49:04.206Z,-0.19767239689826965,1.253389596939087,9.903791427612305,-0.0009025111794471741,-0.00011806096881628036,-0.0003479910083115101,0,1983,45
2026-05-03T13:49:04.306Z,-0.21219301223754883,1.2390899658203125,9.932404518127441,-0.0003695860505104065,0.00014840252697467804,-0.0003479910083115101,0,1990,45
2026-05-03T13:49:04.406Z,-0.19767239689826965,1.234323501586914,9.90855884552002,0.000296570360660553,-0.00011806096881628036,-0.000481222290545702,0,1985,45
2026-05-03T13:49:04.506Z,-0.19283220171928406,1.253389596939087,9.94194221496582,-0.00010311603546142578,-0.00025129131972789764,0.0003181654028594494,0,1985,45
2026-05-03T13:49:04.606Z,-0.19283220171928406,1.2438565492630005,9.918098449707031,-0.0009025111794471741,0.00014840252697467804,-0.0008809161372482777,0,1987,45
2026-05-03T13:49:04.706Z,-0.21219301223754883,1.2486231327056885,9.889483451843262,-0.0006360486149787903,-0.00011806096881628036,0.000451396219432354,0,1983,45
2026-05-03T13:49:04.806Z,-0.19283220171928406,1.2486231327056885,9.913329124450684,-0.0005028173327445984,-0.0009174477308988571,0.0003181654028594494,0,1981,45
2026-05-03T13:49:04.906Z,-0.19767239689826965,1.229556918144226,9.903791427612305,-0.0003695860505104065,-0.0011839112266898155,5.17028383910656e-05,0,1986,45
2026-05-03T13:49:05.006Z,-0.20735281705856323,1.2390899658203125,9.899023056030273,0.0005630329251289368,0.00041486509144306183,-8.15284438431263e-05,0,1985,45
2026-05-03T13:49:05.106Z,-0.18315178155899048,1.229556918144226,9.89425277709961,-0.0007692724466323853,0.00014840252697467804,-8.15284438431263e-05,0,1981,45
2026-05-03T13:49:05.206Z,-0.20735281705856323,1.234323501586914,9.918098449707031,-0.0005028173327445984,-0.0011839112266898155,-8.15284438431263e-05,0,1987,45
2026-05-03T13:49:05.306Z,-0.21703322231769562,1.234323501586914,9.90855884552002,3.010779619216919e-05,-0.00025129131972789764,0.000451396219432354,0,1993,45
2026-05-03T13:49:05.406Z,-0.20251260697841644,1.2438565492630005,9.89425277709961,-0.0003695860505104065,-0.00038452260196208954,-0.0007476843893527985,0,1990,45
2026-05-03T13:49:05.506Z,-0.20735281705856323,1.2390899658203125,9.899023056030273,-0.0002363547682762146,0.000681326724588871,0.0015172464773058891,0,1986,45
2026-05-03T13:49:05.606Z,-0.19767239689826965,1.229556918144226,9.937174797058105,3.010779619216919e-05,-0.00025129131972789764,0.0009843213483691216,0,1990,45
2026-05-03T13:49:05.706Z,-0.21219301223754883,1.2390899658203125,9.913329124450684,-0.0013022050261497498,0.0005480954423546791,0.000451396219432354,0,1984,45
2026-05-03T13:49:05.806Z,-0.20251260697841644,1.2438565492630005,9.903791427612305,-0.0006360486149787903,-0.000517754815518856,-0.0006144531071186066,0,1985,45
2026-05-03T13:49:05.906Z,-0.18315178155899048,1.2438565492630005,9.913329124450684,-0.0003695860505104065,-0.000517754815518856,0.0008510900661349297,0,1988,45
2026-05-03T13:49:06.006Z,-0.19767239689826965,1.2486231327056885,9.918098449707031,-0.0002363547682762146,-0.00011806096881628036,0.0019169403240084648,0,1989,45
2026-05-03T13:49:06.106Z,-0.20251260697841644,1.234323501586914,9.913329124450684,-0.0006360486149787903,0.0005480954423546791,-8.15284438431263e-05,0,1986,45
2026-05-03T13:49:06.206Z,-0.2218734323978424,1.2247904539108276,9.918098449707031,-0.001035742461681366,0.0005480954423546791,0.0003181654028594494,0,1981,45
2026-05-03T13:49:06.306Z,-0.18315178155899048,1.2438565492630005,9.903791427612305,3.010779619216919e-05,0.000681326724588871,-0.0003479910083115101,0,1982,45
2026-05-03T13:49:06.406Z,-0.17831158638000488,1.2390899658203125,9.903791427612305,-0.0006360486149787903,1.5171244740486145e-05,0.0005846279673278332,0,1989,45
2026-05-03T13:49:06.506Z,-0.20251260697841644,1.229556918144226,9.946710586547852,-0.0002363547682762146,1.5171244740486145e-05,-0.0002147597260773182,0,1988,45
2026-05-03T13:49:06.606Z,-0.19283220171928406,1.2152574062347412,9.899023056030273,-0.0005028173327445984,1.5171244740486145e-05,-0.0006144531071186066,0,1987,45
2026-05-03T13:49:06.706Z,-0.19767239689826965,1.2200238704681396,9.903791427612305,-0.0006360486149787903,1.5171244740486145e-05,-0.0007476843893527985,0,1984,45
2026-05-03T13:49:06.806Z,-0.21219301223754883,1.2438565492630005,9.937174797058105,-0.0002363547682762146,-0.0006509851664304733,0.000451396219432354,0,1988,45
2026-05-03T13:49:06.906Z,-0.18315178155899048,1.2390899658203125,9.913329124450684,-0.0003695860505104065,-0.00025129131972789764,-8.15284438431263e-05,0,1986,45
2026-05-03T13:49:07.006Z,-0.20735281705856323,1.253389596939087,9.88471508026123,-0.0003695860505104065,-0.00025129131972789764,0.0007178592495620251,0,1985,45
2026-05-03T13:49:07.106Z,-0.17831158638000488,1.2390899658203125,9.94194221496582,-0.0003695860505104065,-0.000517754815518856,-0.0003479910083115101,0,1985,45
2026-05-03T13:49:07.206Z,-0.21219301223754883,1.2390899658203125,9.913329124450684,-0.0006360486149787903,-0.00038452260196208954,0.000451396219432354,0,1986,45
2026-05-03T13:49:07.306Z,-0.1734713762998581,1.2486231327056885,9.922866821289062,-0.0003695860505104065,-0.0007842173799872398,0.0001849341206252575,0,1988,45
2026-05-03T13:49:07.406Z,-0.19283220171928406,1.2152574062347412,9.89425277709961,-0.00010311603546142578,1.5171244740486145e-05,0.0005846279673278332,0,1987,45
2026-05-03T13:49:07.506Z,-0.18799199163913727,1.2390899658203125,9.899023056030273,-0.0009025111794471741,-0.000517754815518856,0.0001849341206252575,0,1989,45
2026-05-03T13:49:07.606Z,-0.20251260697841644,1.2438565492630005,9.913329124450684,-0.0006360486149787903,-0.00038452260196208954,-0.0002147597260773182,0,1984,45
2026-05-03T13:49:07.706Z,-0.2315538376569748,1.2247904539108276,9.89425277709961,-0.0002363547682762146,-0.00025129131972789764,0.0012507843784987926,0,1983,45
2026-05-03T13:49:07.806Z,-0.1734713762998581,1.2438565492630005,9.89425277709961,-0.0002363547682762146,1.5171244740486145e-05,0.000451396219432354,0,1987,45
2026-05-03T13:49:07.906Z,-0.20251260697841644,1.2152574062347412,9.903791427612305,-0.0006360486149787903,-0.0009174477308988571,0.0005846279673278332,0,1989,45
2026-05-03T13:49:08.006Z,-0.19767239689826965,1.2438565492630005,9.918098449707031,0.000296570360660553,-0.0007842173799872398,0.0001849341206252575,0,1983,45
2026-05-03T13:49:08.106Z,-0.19283220171928406,1.253389596939087,9.89425277709961,-0.0011689737439155579,-0.00011806096881628036,0.0003181654028594494,0,1984,45
2026-05-03T13:49:08.206Z,-0.20735281705856323,1.2438565492630005,9.937174797058105,0.0008294954895973206,-0.0006509851664304733,0.0009843213483691216,0,1987,45
2026-05-03T13:49:08.306Z,-0.19283220171928406,1.234323501586914,9.918098449707031,0.000296570360660553,-0.000517754815518856,0.0008510900661349297,0,1981,45
2026-05-03T13:49:08.406Z,-0.21219301223754883,1.2390899658203125,9.89425277709961,-0.0002363547682762146,-0.00025129131972789764,-0.0006144531071186066,0,1977,45
2026-05-03T13:49:08.506Z,-0.20251260697841644,1.258156180381775,9.918098449707031,0.000296570360660553,1.5171244740486145e-05,0.0005846279673278332,0,1985,45
2026-05-03T13:49:08.606Z,-0.18315178155899048,1.2438565492630005,9.903791427612305,-0.0007692724466323853,-0.0006509851664304733,0.0005846279673278332,0,1985,45
2026-05-03T13:49:08.706Z,-0.21219301223754883,1.2390899658203125,9.937174797058105,0.0005630329251289368,1.5171244740486145e-05,-0.0002147597260773182,0,1983,45
2026-05-03T13:49:08.806Z,-0.20251260697841644,1.2247904539108276,9.94194221496582,-0.0013022050261497498,1.5171244740486145e-05,0.0005846279673278332,0,1990,45
2026-05-03T13:49:08.906Z,-0.19767239689826965,1.258156180381775,9.927635192871094,-0.0003695860505104065,-0.00025129131972789764,0.0009843213483691216,0,1981,45
2026-05-03T13:49:09.006Z,-0.21219301223754883,1.2390899658203125,9.913329124450684,-0.0009025111794471741,-0.0006509851664304733,5.17028383910656e-05,0,1984,45
2026-05-03T13:49:09.106Z,-0.19283220171928406,1.2390899658203125,9.90855884552002,-0.0002363547682762146,0.00041486509144306183,-0.0008809161372482777,0,1982,45
2026-05-03T13:49:09.206Z,-0.20735281705856323,1.2438565492630005,9.913329124450684,-0.0011689737439155579,0.0002816328778862953,5.17028383910656e-05,0,1995,45
2026-05-03T13:49:09.306Z,-0.17831158638000488,1.234323501586914,9.922866821289062,-0.0005028173327445984,-0.00025129131972789764,0.0001849341206252575,0,1985,45
2026-05-03T13:49:09.406Z,-0.2315538376569748,1.2247904539108276,9.922866821289062,-0.00010311603546142578,-0.0014503728598356247,-0.0006144531071186066,0,1993,45
2026-05-03T13:49:09.506Z,-0.2218734323978424,1.2200238704681396,9.932404518127441,-0.0005028173327445984,-0.000517754815518856,-0.0003479910083115101,0,1991,45
2026-05-03T13:49:09.606Z,-0.1637909710407257,1.2200238704681396,9.889483451843262,-0.0002363547682762146,-0.0009174477308988571,0.000451396219432354,0,1988,45
2026-05-03T13:49:09.706Z,-0.20251260697841644,1.2200238704681396,9.90855884552002,-0.001035742461681366,0.00041486509144306183,0.0011175530962646008,0,1988,45
2026-05-03T13:49:09.806Z,-0.20251260697841644,1.2438565492630005,9.90855884552002,-0.0014354288578033447,-0.00011806096881628036,0.0005846279673278332,0,1988,45
2026-05-03T13:49:09.906Z,-0.21703322231769562,1.234323501586914,9.899023056030273,-0.00010311603546142578,0.0005480954423546791,-8.15284438431263e-05,0,1985,45
2026-05-03T13:49:10.006Z,-0.21703322231769562,1.2390899658203125,9.899023056030273,-0.0007692724466323853,1.5171244740486145e-05,0.0008510900661349297,0,1978,45
2026-05-03T13:49:10.106Z,-0.21703322231769562,1.2390899658203125,9.918098449707031,-0.0003695860505104065,-0.00038452260196208954,0.0008510900661349297,0,1987,45
2026-05-03T13:49:10.206Z,-0.20735281705856323,1.2438565492630005,9.89425277709961,-0.0007692724466323853,1.5171244740486145e-05,-0.0002147597260773182,0,1980,45
2026-05-03T13:49:10.306Z,-0.19767239689826965,1.2390899658203125,9.90855884552002,0.00016333907842636108,-0.00011806096881628036,0.0009843213483691216,0,1986,45
2026-05-03T13:49:10.406Z,-0.18315178155899048,1.229556918144226,9.918098449707031,-0.0006360486149787903,0.0008145589381456375,0.0001849341206252575,0,1989,45
2026-05-03T13:49:10.506Z,-0.21219301223754883,1.2390899658203125,9.899023056030273,-0.0003695860505104065,-0.00025129131972789764,0.0005846279673278332,0,1985,45
2026-05-03T13:49:10.606Z,-0.19767239689826965,1.2438565492630005,9.875177383422852,-0.0009025111794471741,-0.0009174477308988571,0.0005846279673278332,0,1987,45
2026-05-03T13:49:10.706Z,-0.20735281705856323,1.2390899658203125,9.913329124450684,-0.0007692724466323853,-0.0011839112266898155,0.0007178592495620251,0,1982,45
2026-05-03T13:49:10.806Z,-0.19283220171928406,1.234323501586914,9.89425277709961,0.0004298016428947449,-0.0007842173799872398,-0.0008809161372482777,0,1984,45
2026-05-03T13:49:10.906Z,-0.226713627576828,1.234323501586914,9.903791427612305,-0.001035742461681366,-0.00038452260196208954,0.0003181654028594494,0,1981,45
2026-05-03T13:49:11.006Z,-0.19767239689826965,1.234323501586914,9.922866821289062,0.000296570360660553,-0.000517754815518856,-0.0002147597260773182,0,1984,45
2026-05-03T13:49:11.106Z,-0.20735281705856323,1.234323501586914,9.903791427612305,-0.0005028173327445984,-0.00011806096881628036,-8.15284438431263e-05,0,1984,45
2026-05-03T13:49:11.206Z,-0.20735281705856323,1.229556918144226,9.913329124450684,-0.0003695860505104065,-0.00038452260196208954,-0.0002147597260773182,0,1986,45
2026-05-03T13:49:11.306Z,-0.21703322231769562,1.2390899658203125,9.90855884552002,-0.0013022050261497498,-0.0006509851664304733,-0.0002147597260773182,0,1983,45
2026-05-03T13:49:11.406Z,-0.21219301223754883,1.234323501586914,9.899023056030273,-0.0002363547682762146,-0.000517754815518856,0.0003181654028594494,0,1986,45
2026-05-03T13:49:11.506Z,-0.20735281705856323,1.2390899658203125,9.913329124450684,-0.0003695860505104065,0.00014840252697467804,0.0005846279673278332,0,1983,45
2026-05-03T13:49:11.606Z,-0.20735281705856323,1.2390899658203125,9.918098449707031,-0.0007692724466323853,-0.0006509851664304733,-8.15284438431263e-05,0,1985,45
2026-05-03T13:49:11.706Z,-0.21703322231769562,1.234323501586914,9.903791427612305,-0.0005028173327445984,-0.001050679013133049,0.0001849341206252575,0,1984,45
2026-05-03T13:49:11.806Z,-0.19767239689826965,1.2438565492630005,9.899023056030273,-0.0003695860505104065,-0.000517754815518856,0.0008510900661349297,0,1985,45
2026-05-03T13:49:11.906Z,-0.20735281705856323,1.2486231327056885,9.918098449707031,-0.0005028173327445984,-0.0013171415776014328,0.0009843213483691216,0,1983,45
2026-05-03T13:49:12.006Z,-0.20251260697841644,1.229556918144226,9.918098449707031,-0.0009025111794471741,-0.000517754815518856,0.0007178592495620251,0,1975,45
2026-05-03T13:49:12.106Z,-0.2218734323978424,1.229556918144226,9.90855884552002,-0.0003695860505104065,-0.0006509851664304733,0.0003181654028594494,0,1980,45
2026-05-03T13:49:12.206Z,-0.20251260697841644,1.2438565492630005,9.903791427612305,-0.0006360486149787903,0.00041486509144306183,-0.0002147597260773182,0,1983,45
2026-05-03T13:49:12.306Z,-0.18315178155899048,1.2390899658203125,9.927635192871094,-0.0009025111794471741,-0.00011806096881628036,0.0003181654028594494,0,1984,45
2026-05-03T13:49:12.406Z,-0.21219301223754883,1.234323501586914,9.903791427612305,-0.0003695860505104065,1.5171244740486145e-05,0.0005846279673278332,0,1986,45
2026-05-03T13:49:12.506Z,-0.19767239689826965,1.2247904539108276,9.913329124450684,-0.0002363547682762146,-0.00011806096881628036,0.0005846279673278332,0,1977,45
2026-05-03T13:49:12.606Z,-0.19283220171928406,1.229556918144226,9.899023056030273,-0.0013022050261497498,0.0005480954423546791,0.0007178592495620251,0,1984,45
2026-05-03T13:49:12.706Z,-0.18799199163913727,1.234323501586914,9.90855884552002,-0.0007692724466323853,-0.000517754815518856,5.17028383910656e-05,0,1987,45
2026-05-03T13:49:12.806Z,-0.21219301223754883,1.234323501586914,9.88471508026123,-0.0005028173327445984,1.5171244740486145e-05,-8.15284438431263e-05,0,1989,45
2026-05-03T13:49:12.906Z,-0.21219301223754883,1.2438565492630005,9.899023056030273,3.010779619216919e-05,-0.00025129131972789764,-0.0003479910083115101,0,1979,45
2026-05-03T13:49:13.006Z,-0.19767239689826965,1.2390899658203125,9.918098449707031,-0.0007692724466323853,1.5171244740486145e-05,-8.15284438431263e-05,0,1985,45
2026-05-03T13:49:13.106Z,-0.2218734323978424,1.234323501586914,9.8799467086792,-0.0006360486149787903,0.00041486509144306183,-0.000481222290545702,0,1983,45
2026-05-03T13:49:13.206Z,-0.21219301223754883,1.2247904539108276,9.927635192871094,-0.00010311603546142578,1.5171244740486145e-05,-0.0006144531071186066,0,1978,45
2026-05-03T13:49:13.306Z,-0.19767239689826965,1.2247904539108276,9.8799467086792,-0.0003695860505104065,1.5171244740486145e-05,-0.0007476843893527985,0,1983,45
2026-05-03T13:49:13.406Z,-0.19767239689826965,1.2438565492630005,9.89425277709961,-0.0006360486149787903,0.0002816328778862953,-0.0003479910083115101,0,1984,45
2026-05-03T13:49:13.506Z,-0.2218734323978424,1.2390899658203125,9.89425277709961,-0.0009025111794471741,-0.00038452260196208954,-0.000481222290545702,0,1976,45
2026-05-03T13:49:13.606Z,-0.19283220171928406,1.229556918144226,9.88471508026123,3.010779619216919e-05,0.00041486509144306183,0.0001849341206252575,0,1982,45
2026-05-03T13:49:13.706Z,-0.20251260697841644,1.253389596939087,9.927635192871094,3.010779619216919e-05,0.0010810205712914467,0.0003181654028594494,0,1976,45
2026-05-03T13:49:13.806Z,-0.20251260697841644,1.2390899658203125,9.913329124450684,-0.0003695860505104065,-0.0013171415776014328,5.17028383910656e-05,0,1979,45
2026-05-03T13:49:13.906Z,-0.21219301223754883,1.2247904539108276,9.899023056030273,-0.0009025111794471741,0.0002816328778862953,5.17028383910656e-05,0,1982,45
2026-05-03T13:49:14.006Z,-0.20251260697841644,1.234323501586914,9.90855884552002,-0.0007692724466323853,-0.0011839112266898155,-0.0002147597260773182,0,1982,45
2026-05-03T13:49:14.106Z,-0.18315178155899048,1.229556918144226,9.918098449707031,-0.0002363547682762146,0.00041486509144306183,0.0003181654028594494,0,1983,45
2026-05-03T13:49:14.206Z,-0.20251260697841644,1.2390899658203125,9.89425277709961,-0.0007692724466323853,-0.00025129131972789764,0.000451396219432354,0,1978,45
2026-05-03T13:49:14.306Z,-0.19283220171928406,1.2390899658203125,9.899023056030273,-0.0003695860505104065,-0.00025129131972789764,0.000451396219432354,0,1980,45
2026-05-03T13:49:14.406Z,-0.19767239689826965,1.234323501586914,9.913329124450684,-0.00010311603546142578,-0.0011839112266898155,-8.15284438431263e-05,0,1986,45
2026-05-03T13:49:14.506Z,-0.17831158638000488,1.234323501586914,9.918098449707031,-0.0003695860505104065,-0.000517754815518856,5.17028383910656e-05,0,1979,45
2026-05-03T13:49:14.606Z,-0.21219301223754883,1.2438565492630005,9.90855884552002,-0.0003695860505104065,1.5171244740486145e-05,-0.0002147597260773182,0,1979,45
2026-05-03T13:49:14.706Z,-0.17831158638000488,1.2390899658203125,9.913329124450684,-0.001035742461681366,0.0002816328778862953,5.17028383910656e-05,0,1971,45
2026-05-03T13:49:14.806Z,-0.18315178155899048,1.2247904539108276,9.913329124450684,-0.0007692724466323853,-0.0007842173799872398,0.0011175530962646008,0,1985,45
2026-05-03T13:49:14.906Z,-0.20735281705856323,1.229556918144226,9.918098449707031,-0.0011689737439155579,1.5171244740486145e-05,5.17028383910656e-05,0,1979,45
2026-05-03T13:49:15.006Z,-0.17831158638000488,1.2390899658203125,9.903791427612305,-0.0002363547682762146,-0.0006509851664304733,0.0003181654028594494,0,1975,45
2026-05-03T13:49:15.106Z,-0.21703322231769562,1.234323501586914,9.913329124450684,-0.0007692724466323853,0.0002816328778862953,5.17028383910656e-05,0,1976,45
2026-05-03T13:49:15.206Z,-0.20251260697841644,1.2247904539108276,9.90855884552002,-0.0005028173327445984,-0.0007842173799872398,0.0001849341206252575,0,1982,45
2026-05-03T13:49:15.306Z,-0.21703322231769562,1.2200238704681396,9.90855884552002,-0.0011689737439155579,1.5171244740486145e-05,5.17028383910656e-05,0,1971,45
2026-05-03T13:49:15.406Z,-0.19767239689826965,1.2247904539108276,9.899023056030273,-0.0003695860505104065,0.00041486509144306183,0.0007178592495620251,0,1975,45
2026-05-03T13:49:15.506Z,-0.18799199163913727,1.2390899658203125,9.899023056030273,3.010779619216919e-05,-0.0007842173799872398,-0.0003479910083115101,0,1978,45
2026-05-03T13:49:15.606Z,-0.2218734323978424,1.2390899658203125,9.8799467086792,-0.0009025111794471741,-0.0006509851664304733,0.0009843213483691216,0,1979,45
2026-05-03T13:49:15.706Z,-0.18315178155899048,1.234323501586914,9.903791427612305,-0.0007692724466323853,-0.0007842173799872398,-8.15284438431263e-05,0,1979,45
2026-05-03T13:49:15.806Z,-0.18799199163913727,1.2390899658203125,9.88471508026123,-0.001035742461681366,-0.0007842173799872398,-8.15284438431263e-05,0,1972,45
2026-05-03T13:49:15.906Z,-0.20735281705856323,1.234323501586914,9.922866821289062,-0.0013022050261497498,0.00041486509144306183,5.17028383910656e-05,0,1981,45
2026-05-03T13:49:16.006Z,-0.21219301223754883,1.2200238704681396,9.94194221496582,-0.0007692724466323853,-0.00038452260196208954,-0.0002147597260773182,0,1974,45
2026-05-03T13:49:16.106Z,-0.2218734323978424,1.2438565492630005,9.875177383422852,-0.0013022050261497498,-0.0006509851664304733,0.000451396219432354,0,1975,45
2026-05-03T13:49:16.206Z,-0.1734713762998581,1.229556918144226,9.913329124450684,-0.0009025111794471741,0.000681326724588871,0.0001849341206252575,0,1976,45
2026-05-03T13:49:16.306Z,-0.20251260697841644,1.229556918144226,9.875177383422852,-0.0007692724466323853,-0.0007842173799872398,0.0001849341206252575,0,1981,45
2026-05-03T13:49:16.406Z,-0.20251260697841644,1.234323501586914,9.903791427612305,-0.0011689737439155579,0.00041486509144306183,0.0007178592495620251,0,1977,45
2026-05-03T13:49:16.506Z,-0.19767239689826965,1.229556918144226,9.8799467086792,-0.0011689737439155579,-0.0009174477308988571,0.0008510900661349297,0,1979,45
2026-05-03T13:49:16.606Z,-0.21703322231769562,1.229556918144226,9.90855884552002,3.010779619216919e-05,-0.000517754815518856,0.0005846279673278332,0,1975,45
2026-05-03T13:49:16.706Z,-0.18315178155899048,1.2438565492630005,9.899023056030273,-0.0014354288578033447,-0.001050679013133049,0.0009843213483691216,0,1974,45
2026-05-03T13:49:16.806Z,-0.21703322231769562,1.2390899658203125,9.922866821289062,-0.0003695860505104065,0.0005480954423546791,0.0011175530962646008,0,1980,45
2026-05-03T13:49:16.906Z,-0.20735281705856323,1.2438565492630005,9.922866821289062,3.010779619216919e-05,-0.0007842173799872398,0.0007178592495620251,0,1976,45
2026-05-03T13:49:17.006Z,-0.20251260697841644,1.234323501586914,9.903791427612305,-0.001035742461681366,-0.0007842173799872398,-0.0002147597260773182,0,1977,44
2026-05-03T13:49:17.106Z,-0.21703322231769562,1.2438565492630005,9.899023056030273,-0.0009025111794471741,-0.0006509851664304733,0.0003181654028594494,0,1974,45
2026-05-03T13:49:17.206Z,-0.1734713762998581,1.2438565492630005,9.89425277709961,-0.0007692724466323853,-0.00025129131972789764,0.000451396219432354,0,1974,45
2026-05-03T13:49:17.306Z,-0.20735281705856323,1.2152574062347412,9.88471508026123,-0.0009025111794471741,-0.00025129131972789764,-0.0007476843893527985,0,1972,44
2026-05-03T13:49:17.406Z,-0.18799199163913727,1.234323501586914,9.889483451843262,-0.001035742461681366,-0.000517754815518856,-0.0002147597260773182,0,1969,45
2026-05-03T13:49:17.506Z,-0.19767239689826965,1.234323501586914,9.90855884552002,-0.0007692724466323853,-0.0006509851664304733,-0.0002147597260773182,0,1964,45
2026-05-03T13:49:17.606Z,-0.21219301223754883,1.234323501586914,9.913329124450684,-0.0005028173327445984,0.000681326724588871,-0.0003479910083115101,0,1970,45
2026-05-03T13:49:17.706Z,-0.17831158638000488,1.234323501586914,9.8799467086792,0.00016333907842636108,-0.00038452260196208954,-0.000481222290545702,0,1965,44
2026-05-03T13:49:17.806Z,-0.21703322231769562,1.2438565492630005,9.8799467086792,-0.0002363547682762146,1.5171244740486145e-05,-0.0011473782360553741,0,1977,44
2026-05-03T13:49:17.906Z,-0.20735281705856323,1.229556918144226,9.89425277709961,-0.0009025111794471741,1.5171244740486145e-05,-8.15284438431263e-05,0,1970,45
2026-05-03T13:49:18.006Z,-0.2218734323978424,1.2247904539108276,9.903791427612305,-0.0006360486149787903,-0.000517754815518856,-0.0003479910083115101,0,1975,45
2026-05-03T13:49:18.106Z,-0.20735281705856323,1.2247904539108276,9.899023056030273,-0.0007692724466323853,1.5171244740486145e-05,0.0003181654028594494,0,1971,44
2026-05-03T13:49:18.206Z,-0.1734713762998581,1.2152574062347412,9.913329124450684,-0.0006360486149787903,-0.00025129131972789764,0.0003181654028594494,0,1974,45
2026-05-03T13:49:18.306Z,-0.19767239689826965,1.229556918144226,9.918098449707031,-0.0009025111794471741,0.0009477892890572548,0.0005846279673278332,0,1974,45
2026-05-03T13:49:18.406Z,-0.19767239689826965,1.2200238704681396,9.89425277709961,-0.0003695860505104065,-0.00025129131972789764,0.0003181654028594494,0,1970,44
2026-05-03T13:49:18.506Z,-0.21219301223754883,1.234323501586914,9.88471508026123,-0.0011689737439155579,0.00014840252697467804,-0.000481222290545702,0,1970,44
2026-05-03T13:49:18.606Z,-0.19767239689826965,1.2390899658203125,9.88471508026123,-0.0005028173327445984,0.00014840252697467804,0.0007178592495620251,0,1968,44
2026-05-03T13:49:18.706Z,-0.2218734323978424,1.2200238704681396,9.899023056030273,-0.0011689737439155579,-0.00011806096881628036,0.000451396219432354,0,1967,44
2026-05-03T13:49:18.806Z,-0.20735281705856323,1.234323501586914,9.88471508026123,-0.0006360486149787903,-0.000517754815518856,0.0012507843784987926,0,1974,45
2026-05-03T13:49:18.906Z,-0.18799199163913727,1.2438565492630005,9.90855884552002,-0.0002363547682762146,0.0002816328778862953,5.17028383910656e-05,0,1969,44
2026-05-03T13:49:19.006Z,-0.21703322231769562,1.2486231327056885,9.903791427612305,-0.0011689737439155579,-0.00038452260196208954,0.000451396219432354,0,1968,44
2026-05-03T13:49:19.106Z,-0.1734713762998581,1.253389596939087,9.922866821289062,-0.0009025111794471741,0.0005480954423546791,0.0008510900661349297,0,1968,45
2026-05-03T13:49:19.206Z,-0.20251260697841644,1.2486231327056885,9.88471508026123,-0.0005028173327445984,-0.0009174477308988571,-8.15284438431263e-05,0,1967,44
2026-05-03T13:49:19.306Z,-0.18315178155899048,1.258156180381775,9.932404518127441,-0.0006360486149787903,-0.0013171415776014328,0.000451396219432354,0,1968,44
2026-05-03T13:49:19.406Z,-0.20251260697841644,1.2390899658203125,9.889483451843262,-0.0005028173327445984,-0.00025129131972789764,-0.0002147597260773182,0,1963,44
2026-05-03T13:49:19.506Z,-0.21703322231769562,1.2200238704681396,9.90855884552002,-0.0006360486149787903,-0.00025129131972789764,0.000451396219432354,0,1965,44
2026-05-03T13:49:19.606Z,-0.18799199163913727,1.234323501586914,9.889483451843262,-0.0005028173327445984,0.00041486509144306183,-0.000481222290545702,0,1969,44
2026-05-03T13:49:19.706Z,-0.20251260697841644,1.2438565492630005,9.903791427612305,-0.0005028173327445984,-0.0006509851664304733,0.000451396219432354,0,1972,44
2026-05-03T13:49:19.806Z,-0.18315178155899048,1.234323501586914,9.889483451843262,0.0004298016428947449,0.0005480954423546791,0.0007178592495620251,0,1965,44
2026-05-03T13:49:19.906Z,-0.21219301223754883,1.253389596939087,9.899023056030273,-0.0005028173327445984,-0.00038452260196208954,5.17028383910656e-05,0,1962,44
2026-05-03T13:49:20.006Z,-0.19767239689826965,1.2200238704681396,9.937174797058105,-0.0007692724466323853,0.00041486509144306183,0.000451396219432354,0,1968,44
2026-05-03T13:49:20.106Z,-0.19767239689826965,1.2390899658203125,9.937174797058105,3.010779619216919e-05,-0.0013171415776014328,0.0003181654028594494,0,1968,44
2026-05-03T13:49:20.206Z,-0.21703322231769562,1.234323501586914,9.90855884552002,-0.0005028173327445984,-0.0006509851664304733,0.0001849341206252575,0,1961,44
2026-05-03T13:49:20.306Z,-0.20251260697841644,1.2438565492630005,9.88471508026123,-0.0002363547682762146,-0.0007842173799872398,0.0003181654028594494,0,1963,44
2026-05-03T13:49:20.406Z,-0.21703322231769562,1.2438565492630005,9.89425277709961,-0.0007692724466323853,-0.00025129131972789764,-8.15284438431263e-05,0,1970,44
2026-05-03T13:49:20.506Z,-0.19767239689826965,1.2390899658203125,9.899023056030273,0.00016333907842636108,-0.00025129131972789764,-8.15284438431263e-05,0,1970,44
2026-05-03T13:49:20.606Z,-0.18315178155899048,1.2390899658203125,9.951480865478516,-0.0002363547682762146,-0.0007842173799872398,0.0003181654028594494,0,1974,44
2026-05-03T13:49:20.706Z,-0.20251260697841644,1.2247904539108276,9.913329124450684,-0.0003695860505104065,-0.0007842173799872398,0.000451396219432354,0,1970,44
2026-05-03T13:49:20.806Z,-0.19283220171928406,1.229556918144226,9.889483451843262,-0.0006360486149787903,0.00014840252697467804,0.0005846279673278332,0,1963,44
2026-05-03T13:49:20.906Z,-0.21219301223754883,1.2247904539108276,9.899023056030273,-0.0006360486149787903,-0.00038452260196208954,0.0003181654028594494,0,1972,44
2026-05-03T13:49:21.006Z,-0.18799199163913727,1.229556918144226,9.918098449707031,0.000296570360660553,1.5171244740486145e-05,0.0009843213483691216,0,1962,44
2026-05-03T13:49:21.106Z,-0.2218734323978424,1.2438565492630005,9.899023056030273,-0.0005028173327445984,-0.0009174477308988571,0.0001849341206252575,0,1969,44
2026-05-03T13:49:21.206Z,-0.20251260697841644,1.2390899658203125,9.922866821289062,-0.0011689737439155579,0.00041486509144306183,-0.000481222290545702,0,1970,44
2026-05-03T13:49:21.306Z,-0.2315538376569748,1.253389596939087,9.90855884552002,-0.0003695860505104065,0.0002816328778862953,0.000451396219432354,0,1969,44
2026-05-03T13:49:21.406Z,-0.20735281705856323,1.2104908227920532,9.927635192871094,-0.0003695860505104065,-0.00025129131972789764,-8.15284438431263e-05,0,1968,44
2026-05-03T13:49:21.506Z,-0.20251260697841644,1.2486231327056885,9.89425277709961,-0.0013022050261497498,-0.0013171415776014328,-0.0007476843893527985,0,1967,44
2026-05-03T13:49:21.606Z,-0.20251260697841644,1.2438565492630005,9.89425277709961,-0.0011689737439155579,0.00014840252697467804,5.17028383910656e-05,0,1971,44
2026-05-03T13:49:21.706Z,-0.2315538376569748,1.2009577751159668,9.865639686584473,-0.0005028173327445984,0.00014840252697467804,-0.001280609518289566,0,1965,44
2026-05-03T13:49:21.806Z,-0.18799199163913727,1.2819888591766357,9.932404518127441,-0.0015686675906181335,-0.00011806096881628036,0.0003181654028594494,0,1977,44
2026-05-03T13:49:21.906Z,-0.18799199163913727,1.2486231327056885,9.889483451843262,-0.0009025111794471741,-0.00025129131972789764,0.000451396219432354,0,1967,44
2026-05-03T13:49:22.006Z,-0.21703322231769562,1.2486231327056885,9.88471508026123,-0.0013022050261497498,-0.001050679013133049,-8.15284438431263e-05,0,1962,45
2026-05-03T13:49:22.106Z,-0.20735281705856323,1.2247904539108276,9.913329124450684,-0.0002363547682762146,1.5171244740486145e-05,-0.0002147597260773182,0,1968,45
2026-05-03T13:49:22.206Z,-0.18315178155899048,1.2390899658203125,9.927635192871094,-0.0015686675906181335,-0.001050679013133049,-8.15284438431263e-05,0,1968,44
2026-05-03T13:49:22.306Z,-0.21219301223754883,1.2390899658203125,9.899023056030273,-0.0005028173327445984,-0.0009174477308988571,-0.0002147597260773182,0,1964,44
2026-05-03T13:49:22.406Z,-0.18315178155899048,1.2247904539108276,9.89425277709961,-0.0006360486149787903,-0.0006509851664304733,-8.15284438431263e-05,0,1968,44
2026-05-03T13:49:22.506Z,-0.21219301223754883,1.2247904539108276,9.913329124450684,-0.0002363547682762146,0.00041486509144306183,0.0008510900661349297,0,1971,45
2026-05-03T13:49:22.606Z,-0.19283220171928406,1.2438565492630005,9.922866821289062,-0.0003695860505104065,-0.0006509851664304733,-8.15284438431263e-05,0,1970,45
2026-05-03T13:49:22.706Z,-0.20251260697841644,1.229556918144226,9.889483451843262,-0.0011689737439155579,0.0009477892890572548,-0.0002147597260773182,0,1969,44
2026-05-03T13:49:22.806Z,-0.20735281705856323,1.2438565492630005,9.870407104492188,-0.0003695860505104065,0.0002816328778862953,0.0001849341206252575,0,1969,44
2026-05-03T13:49:22.906Z,-0.18315178155899048,1.234323501586914,9.913329124450684,0.0010959580540657043,0.00014840252697467804,-0.000481222290545702,0,1975,44
2026-05-03T13:49:23.006Z,-0.20735281705856323,1.229556918144226,9.922866821289062,-0.0013022050261497498,-0.001050679013133049,0.000451396219432354,0,1967,44
2026-05-03T13:49:23.106Z,-0.18799199163913727,1.2486231327056885,9.899023056030273,-0.0014354288578033447,0.0008145589381456375,-0.0002147597260773182,0,1973,44
2026-05-03T13:49:23.206Z,-0.226713627576828,1.2438565492630005,9.927635192871094,-0.0007692724466323853,-0.000517754815518856,0.0007178592495620251,0,1966,44
2026-05-03T13:49:23.306Z,-0.20735281705856323,1.229556918144226,9.922866821289062,-0.0013022050261497498,0.00014840252697467804,0.0012507843784987926,0,1969,44
2026-05-03T13:49:23.406Z,-0.18315178155899048,1.2200238704681396,9.903791427612305,3.010779619216919e-05,-0.0011839112266898155,0.0011175530962646008,0,1965,44
2026-05-03T13:49:23.506Z,-0.2218734323978424,1.2247904539108276,9.90855884552002,-0.001035742461681366,-0.0009174477308988571,0.0013840151950716972,0,1966,44
2026-05-03T13:49:23.606Z,-0.18315178155899048,1.2247904539108276,9.90855884552002,-0.0011689737439155579,-0.0009174477308988571,-0.0002147597260773182,0,1967,44
2026-05-03T13:49:23.706Z,-0.2218734323978424,1.229556918144226,9.927635192871094,-0.0002363547682762146,-0.00011806096881628036,-0.001280609518289566,0,1966,44
2026-05-03T13:49:23.806Z,-0.18315178155899048,1.2629226446151733,9.8799467086792,-0.0009025111794471741,1.5171244740486145e-05,5.17028383910656e-05,0,1963,44
2026-05-03T13:49:23.906Z,-0.20251260697841644,1.2247904539108276,9.8799467086792,-0.0011689737439155579,0.0008145589381456375,0.0001849341206252575,0,1966,44
2026-05-03T13:49:24.006Z,-0.20251260697841644,1.2390899658203125,9.903791427612305,-0.0003695860505104065,-0.000517754815518856,-8.15284438431263e-05,0,1970,45
2026-05-03T13:49:24.106Z,-0.19767239689826965,1.2152574062347412,9.90855884552002,-0.0007692724466323853,-0.0011839112266898155,0.0005846279673278332,0,1966,44
2026-05-03T13:49:24.206Z,-0.18799199163913727,1.2390899658203125,9.89425277709961,-0.001035742461681366,-0.00011806096881628036,-0.0003479910083115101,0,1969,44
2026-05-03T13:49:24.306Z,-0.1734713762998581,1.2390899658203125,9.922866821289062,-0.0015686675906181335,-0.00025129131972789764,-0.0010141469538211823,0,1961,44
2026-05-03T13:49:24.406Z,-0.20251260697841644,1.229556918144226,9.90855884552002,-0.0005028173327445984,0.0002816328778862953,0.0001849341206252575,0,1959,44
2026-05-03T13:49:24.506Z,-0.18799199163913727,1.2390899658203125,9.899023056030273,-0.0003695860505104065,-0.00011806096881628036,-0.000481222290545702,0,1969,44
2026-05-03T13:49:24.606Z,-0.20251260697841644,1.229556918144226,9.918098449707031,-0.0007692724466323853,1.5171244740486145e-05,-0.0008809161372482777,0,1970,44
2026-05-03T13:49:24.706Z,-0.21219301223754883,1.2390899658203125,9.922866821289062,0.000296570360660553,0.0005480954423546791,-0.0002147597260773182,0,1970,44
2026-05-03T13:49:24.806Z,-0.19767239689826965,1.229556918144226,9.899023056030273,-0.0007692724466323853,-0.00038452260196208954,-0.0002147597260773182,0,1963,44
2026-05-03T13:49:24.906Z,-0.21219301223754883,1.234323501586914,9.903791427612305,-0.00010311603546142578,-0.001050679013133049,-0.0006144531071186066,0,1972,44
2026-05-03T13:49:25.006Z,-0.20251260697841644,1.229556918144226,9.913329124450684,-0.00010311603546142578,-0.0009174477308988571,0.0003181654028594494,0,1967,44
2026-05-03T13:49:25.106Z,-0.19767239689826965,1.2247904539108276,9.94194221496582,-0.0007692724466323853,-0.00038452260196208954,0.0009843213483691216,0,1970,44
2026-05-03T13:49:25.206Z,-0.19767239689826965,1.2486231327056885,9.918098449707031,-0.001035742461681366,0.00014840252697467804,0.0003181654028594494,0,1968,44
2026-05-03T13:49:25.306Z,-0.20251260697841644,1.2152574062347412,9.88471508026123,-0.0011689737439155579,-0.00025129131972789764,0.0003181654028594494,0,1969,44
2026-05-03T13:49:25.406Z,-0.17831158638000488,1.2152574062347412,9.903791427612305,-0.0009025111794471741,-0.00011806096881628036,0.0009843213483691216,0,1965,44
2026-05-03T13:49:25.506Z,-0.19283220171928406,1.2390899658203125,9.899023056030273,-0.0011689737439155579,0.00014840252697467804,0.0001849341206252575,0,1965,44
2026-05-03T13:49:25.606Z,-0.21219301223754883,1.234323501586914,9.913329124450684,-0.0006360486149787903,-0.00025129131972789764,-0.0002147597260773182,0,1962,44
2026-05-03T13:49:25.706Z,-0.20735281705856323,1.234323501586914,9.918098449707031,-0.0006360486149787903,-0.000517754815518856,0.000451396219432354,0,1958,44
2026-05-03T13:49:25.806Z,-0.19767239689826965,1.253389596939087,9.899023056030273,-0.0009025111794471741,-0.001050679013133049,-8.15284438431263e-05,0,1967,44
2026-05-03T13:49:25.906Z,-0.18315178155899048,1.2200238704681396,9.89425277709961,-0.0009025111794471741,-0.00011806096881628036,-8.15284438431263e-05,0,1972,44
2026-05-03T13:49:26.006Z,-0.18315178155899048,1.234323501586914,9.899023056030273,-0.0013022050261497498,-0.00011806096881628036,-0.0002147597260773182,0,1965,44
2026-05-03T13:49:26.106Z,-0.21703322231769562,1.229556918144226,9.90855884552002,-0.0003695860505104065,-0.00038452260196208954,-0.0002147597260773182,0,1964,44
2026-05-03T13:49:26.206Z,-0.21703322231769562,1.229556918144226,9.90855884552002,-0.0007692724466323853,-0.0007842173799872398,0.0001849341206252575,0,1961,44
2026-05-03T13:49:26.306Z,-0.18315178155899048,1.2438565492630005,9.903791427612305,-0.0003695860505104065,-0.0006509851664304733,-8.15284438431263e-05,0,1966,44
2026-05-03T13:49:26.406Z,-0.20735281705856323,1.234323501586914,9.932404518127441,-0.0006360486149787903,0.00014840252697467804,-0.0007476843893527985,0,1967,44
2026-05-03T13:49:26.506Z,-0.19767239689826965,1.229556918144226,9.918098449707031,-0.0014354288578033447,-0.001050679013133049,-0.000481222290545702,0,1967,44
2026-05-03T13:49:26.606Z,-0.21703322231769562,1.2390899658203125,9.899023056030273,-0.0007692724466323853,1.5171244740486145e-05,-0.0010141469538211823,0,1968,44
2026-05-03T13:49:26.706Z,-0.18315178155899048,1.229556918144226,9.89425277709961,-0.0006360486149787903,0.0002816328778862953,0.0001849341206252575,0,1966,44
2026-05-03T13:49:26.806Z,-0.17831158638000488,1.2486231327056885,9.89425277709961,-0.0005028173327445984,-0.00011806096881628036,-0.000481222290545702,0,1967,44
2026-05-03T13:49:26.906Z,-0.2315538376569748,1.2486231327056885,9.889483451843262,-0.0007692724466323853,1.5171244740486145e-05,0.0008510900661349297,0,1964,44
2026-05-03T13:49:27.006Z,-0.1734713762998581,1.2438565492630005,9.903791427612305,3.010779619216919e-05,-0.0007842173799872398,0.0001849341206252575,0,1960,44
2026-05-03T13:49:27.106Z,-0.20251260697841644,1.2247904539108276,9.899023056030273,-0.001035742461681366,-0.00025129131972789764,5.17028383910656e-05,0,1969,44
2026-05-03T13:49:27.206Z,-0.19767239689826965,1.229556918144226,9.913329124450684,-0.00010311603546142578,0.00014840252697467804,-8.15284438431263e-05,0,1971,44
2026-05-03T13:49:27.306Z,-0.20735281705856323,1.2486231327056885,9.913329124450684,-0.0009025111794471741,0.0002816328778862953,-8.15284438431263e-05,0,1968,44
2026-05-03T13:49:27.406Z,-0.21703322231769562,1.229556918144226,9.89425277709961,-0.0011689737439155579,1.5171244740486145e-05,0.0005846279673278332,0,1968,44
2026-05-03T13:49:27.506Z,-0.20251260697841644,1.2200238704681396,9.89425277709961,-0.0002363547682762146,-0.0006509851664304733,0.0001849341206252575,0,1960,44
2026-05-03T13:49:27.606Z,-0.19767239689826965,1.229556918144226,9.89425277709961,-0.0005028173327445984,-0.00011806096881628036,0.0003181654028594494,0,1960,44
2026-05-03T13:49:27.706Z,-0.18315178155899048,1.2486231327056885,9.88471508026123,-0.0007692724466323853,-0.00025129131972789764,-0.0002147597260773182,0,1966,44
2026-05-03T13:49:27.806Z,-0.21703322231769562,1.2390899658203125,9.889483451843262,-0.0006360486149787903,0.0005480954423546791,0.0007178592495620251,0,1964,45
2026-05-03T13:49:27.906Z,-0.20251260697841644,1.2438565492630005,9.899023056030273,-0.0006360486149787903,0.00014840252697467804,5.17028383910656e-05,0,1964,44
2026-05-03T13:49:28.006Z,-0.17831158638000488,1.234323501586914,9.89425277709961,-0.001035742461681366,0.0002816328778862953,0.0008510900661349297,0,1967,44
2026-05-03T13:49:28.106Z,-0.19283220171928406,1.2629226446151733,9.89425277709961,-0.0006360486149787903,-0.00011806096881628036,-0.0003479910083115101,0,1960,44
2026-05-03T13:49:28.206Z,-0.20735281705856323,1.234323501586914,9.90855884552002,0.00016333907842636108,-0.0011839112266898155,0.0001849341206252575,0,1963,45
2026-05-03T13:49:28.306Z,-0.21219301223754883,1.2486231327056885,9.889483451843262,-0.0003695860505104065,-0.00038452260196208954,-0.0002147597260773182,0,1966,44
2026-05-03T13:49:28.406Z,-0.18315178155899048,1.2390899658203125,9.903791427612305,-0.0011689737439155579,-0.00025129131972789764,0.0001849341206252575,0,1969,45
2026-05-03T13:49:28.506Z,-0.21219301223754883,1.2438565492630005,9.889483451843262,-0.0005028173327445984,-0.000517754815518856,-0.001280609518289566,0,1970,44
2026-05-03T13:49:28.606Z,-0.17831158638000488,1.253389596939087,9.913329124450684,-0.0007692724466323853,0.00041486509144306183,-0.0002147597260773182,0,1962,44
2026-05-03T13:49:28.706Z,-0.19283220171928406,1.2486231327056885,9.889483451843262,-0.00010311603546142578,-0.00025129131972789764,-0.0003479910083115101,0,1970,44
2026-05-03T13:49:28.806Z,-0.17831158638000488,1.234323501586914,9.937174797058105,-0.0014354288578033447,1.5171244740486145e-05,-0.0010141469538211823,0,1963,44
2026-05-03T13:49:28.906Z,-0.19283220171928406,1.2200238704681396,9.90855884552002,-0.0009025111794471741,0.000681326724588871,-8.15284438431263e-05,0,1959,44
2026-05-03T13:49:29.006Z,-0.2218734323978424,1.253389596939087,9.899023056030273,-0.0011689737439155579,0.00014840252697467804,-0.0002147597260773182,0,1967,44
2026-05-03T13:49:29.106Z,-0.19767239689826965,1.2200238704681396,9.90855884552002,-0.0003695860505104065,-0.0007842173799872398,-0.0002147597260773182,0,1957,44
2026-05-03T13:49:29.206Z,-0.18315178155899048,1.2390899658203125,9.913329124450684,-0.0014354288578033447,-0.000517754815518856,0.000451396219432354,0,1960,44
2026-05-03T13:49:29.306Z,-0.1637909710407257,1.229556918144226,9.913329124450684,-0.0005028173327445984,1.5171244740486145e-05,0.0001849341206252575,0,1969,44
2026-05-03T13:49:29.406Z,-0.21219301223754883,1.2390899658203125,9.90855884552002,-0.0007692724466323853,-0.00025129131972789764,5.17028383910656e-05,0,1962,44
2026-05-03T13:49:29.506Z,-0.18315178155899048,1.2438565492630005,9.88471508026123,0.000296570360660553,-0.00038452260196208954,0.0011175530962646008,0,1967,44
2026-05-03T13:49:29.606Z,-0.19283220171928406,1.234323501586914,9.903791427612305,-0.0005028173327445984,0.00014840252697467804,-8.15284438431263e-05,0,1966,44
2026-05-03T13:49:29.706Z,-0.18315178155899048,1.234323501586914,9.89425277709961,-0.0003695860505104065,-0.0006509851664304733,0.0001849341206252575,0,1965,44
2026-05-03T13:49:29.806Z,-0.226713627576828,1.253389596939087,9.88471508026123,-0.0002363547682762146,-0.0006509851664304733,0.001783709041774273,0,1963,44
2026-05-03T13:49:29.906Z,-0.19283220171928406,1.229556918144226,9.89425277709961,-0.0005028173327445984,0.00014840252697467804,-0.0002147597260773182,0,1966,44
2026-05-03T13:49:30.006Z,-0.20735281705856323,1.2390899658203125,9.903791427612305,-0.0005028173327445984,-0.00011806096881628036,0.0003181654028594494,0,1957,44
2026-05-03T13:49:30.106Z,-0.17831158638000488,1.2390899658203125,9.922866821289062,-0.0003695860505104065,-0.00025129131972789764,-0.0002147597260773182,0,1966,44
2026-05-03T13:49:30.206Z,-0.18799199163913727,1.2438565492630005,9.913329124450684,0.00016333907842636108,-0.0006509851664304733,0.0005846279673278332,0,1969,44
2026-05-03T13:49:30.306Z,-0.20735281705856323,1.234323501586914,9.922866821289062,-0.0011689737439155579,0.00041486509144306183,0.0007178592495620251,0,1965,44
2026-05-03T13:49:30.406Z,-0.21703322231769562,1.2247904539108276,9.856101036071777,-0.00010311603546142578,-0.0007842173799872398,0.000451396219432354,0,1969,44
2026-05-03T13:49:30.506Z,-0.2218734323978424,1.2104908227920532,9.90855884552002,-0.0005028173327445984,-0.00025129131972789764,0.0001849341206252575,0,1960,44
2026-05-03T13:49:30.606Z,-0.20251260697841644,1.234323501586914,9.903791427612305,-0.0005028173327445984,-0.00025129131972789764,0.000451396219432354,0,1966,44
2026-05-03T13:49:30.706Z,-0.20251260697841644,1.2438565492630005,9.875177383422852,-0.0006360486149787903,-0.00038452260196208954,5.17028383910656e-05,0,1967,44
2026-05-03T13:49:30.806Z,-0.21703322231769562,1.258156180381775,9.922866821289062,-0.0003695860505104065,-0.0007842173799872398,0.0008510900661349297,0,1965,44
2026-05-03T13:49:30.906Z,-0.18799199163913727,1.2390899658203125,9.913329124450684,-0.0005028173327445984,-0.00011806096881628036,5.17028383910656e-05,0,1966,44
2026-05-03T13:49:31.006Z,-0.17831158638000488,1.2390899658203125,9.903791427612305,-0.0009025111794471741,0.00041486509144306183,0.0001849341206252575,0,1964,44
2026-05-03T13:49:31.106Z,-0.17831158638000488,1.2200238704681396,9.903791427612305,-0.0011689737439155579,-0.00011806096881628036,0.0003181654028594494,0,1963,44
2026-05-03T13:49:31.206Z,-0.20735281705856323,1.234323501586914,9.913329124450684,-0.0013022050261497498,-0.0013171415776014328,0.0001849341206252575,0,1957,44
2026-05-03T13:49:31.306Z,-0.21703322231769562,1.253389596939087,9.889483451843262,-0.0009025111794471741,-0.00038452260196208954,0.000451396219432354,0,1966,44
2026-05-03T13:49:31.406Z,-0.20251260697841644,1.2390899658203125,9.899023056030273,-0.00010311603546142578,-0.0011839112266898155,5.17028383910656e-05,0,1962,44
2026-05-03T13:49:31.506Z,-0.1734713762998581,1.2486231327056885,9.913329124450684,-0.0007692724466323853,0.0002816328778862953,0.0009843213483691216,0,1966,44
2026-05-03T13:49:31.606Z,-0.21703322231769562,1.2390899658203125,9.913329124450684,-0.0005028173327445984,-0.0006509851664304733,-0.0002147597260773182,0,1962,44
2026-05-03T13:49:31.706Z,-0.18315178155899048,1.253389596939087,9.90855884552002,-0.0013022050261497498,-0.00025129131972789764,-0.0003479910083115101,0,1958,44
2026-05-03T13:49:31.806Z,-0.20251260697841644,1.229556918144226,9.870407104492188,-0.0009025111794471741,-0.00025129131972789764,0.0001849341206252575,0,1958,44
2026-05-03T13:49:31.906Z,-0.20251260697841644,1.2438565492630005,9.922866821289062,-0.0015686675906181335,-0.00011806096881628036,0.0003181654028594494,0,1959,44
2026-05-03T13:49:32.006Z,-0.19767239689826965,1.2247904539108276,9.889483451843262,-0.0013022050261497498,-0.0009174477308988571,0.0003181654028594494,0,1962,44
2026-05-03T13:49:32.106Z,-0.19767239689826965,1.229556918144226,9.90855884552002,-0.0006360486149787903,1.5171244740486145e-05,0.0001849341206252575,0,1963,44
2026-05-03T13:49:32.206Z,-0.19283220171928406,1.234323501586914,9.889483451843262,-0.0007692724466323853,-0.00038452260196208954,-0.0003479910083115101,0,1962,44
2026-05-03T13:49:32.306Z,-0.19283220171928406,1.2390899658203125,9.89425277709961,-0.0006360486149787903,0.00014840252697467804,0.000451396219432354,0,1963,44
2026-05-03T13:49:32.406Z,-0.18315178155899048,1.2390899658203125,9.89425277709961,-0.001035742461681366,-0.0011839112266898155,0.0007178592495620251,0,1964,44
2026-05-03T13:49:32.506Z,-0.19283220171928406,1.234323501586914,9.8799467086792,-0.0015686675906181335,0.000681326724588871,-8.15284438431263e-05,0,1964,44
2026-05-03T13:49:32.606Z,-0.2315538376569748,1.2390899658203125,9.89425277709961,-0.0002363547682762146,-0.000517754815518856,0.0007178592495620251,0,1961,44
2026-05-03T13:49:32.706Z,-0.20251260697841644,1.2200238704681396,9.870407104492188,-0.0006360486149787903,-0.00038452260196208954,-0.000481222290545702,0,1967,44
2026-05-03T13:49:32.806Z,-0.18799199163913727,1.234323501586914,9.903791427612305,-0.0005028173327445984,-0.00011806096881628036,5.17028383910656e-05,0,1964,44
2026-05-03T13:49:32.906Z,-0.20251260697841644,1.2390899658203125,9.899023056030273,-0.0002363547682762146,0.00014840252697467804,0.000451396219432354,0,1967,44
2026-05-03T13:49:33.006Z,-0.18315178155899048,1.234323501586914,9.927635192871094,-0.0005028173327445984,0.0002816328778862953,-0.0007476843893527985,0,1957,44
2026-05-03T13:49:33.106Z,-0.19283220171928406,1.2390899658203125,9.899023056030273,-0.0006360486149787903,-0.0011839112266898155,-0.0003479910083115101,0,1958,44
2026-05-03T13:49:33.206Z,-0.20251260697841644,1.2486231327056885,9.899023056030273,-0.00010311603546142578,1.5171244740486145e-05,0.000451396219432354,0,1966,44
2026-05-03T13:49:33.306Z,-0.20251260697841644,1.234323501586914,9.889483451843262,-0.00010311603546142578,-0.0009174477308988571,-0.0002147597260773182,0,1959,44
2026-05-03T13:49:33.406Z,-0.20735281705856323,1.2247904539108276,9.889483451843262,-0.0007692724466323853,0.000681326724588871,0.0001849341206252575,0,1968,44
2026-05-03T13:49:33.506Z,-0.17831158638000488,1.234323501586914,9.899023056030273,-0.0007692724466323853,-0.0011839112266898155,0.0009843213483691216,0,1963,44
2026-05-03T13:49:33.606Z,-0.19767239689826965,1.229556918144226,9.918098449707031,-0.00010311603546142578,-0.00011806096881628036,0.0005846279673278332,0,1961,44
2026-05-03T13:49:33.706Z,-0.19767239689826965,1.2438565492630005,9.946710586547852,-0.0007692724466323853,-0.000517754815518856,0.0005846279673278332,0,1963,44
2026-05-03T13:49:33.806Z,-0.2218734323978424,1.234323501586914,9.8799467086792,-0.0011689737439155579,-0.00011806096881628036,-0.000481222290545702,0,1966,44
2026-05-03T13:49:33.906Z,-0.21703322231769562,1.2390899658203125,9.8799467086792,-0.0003695860505104065,-0.0006509851664304733,0.0003181654028594494,0,1966,44
2026-05-03T13:49:34.006Z,-0.1734713762998581,1.234323501586914,9.875177383422852,-0.0013022050261497498,0.00041486509144306183,0.0001849341206252575,0,1959,44
2026-05-03T13:49:34.106Z,-0.2218734323978424,1.2390899658203125,9.937174797058105,-0.0005028173327445984,-0.001050679013133049,0.0003181654028594494,0,1968,44
2026-05-03T13:49:34.206Z,-0.18315178155899048,1.2438565492630005,9.903791427612305,-0.0006360486149787903,-0.00038452260196208954,0.0001849341206252575,0,1954,44
2026-05-03T13:49:34.306Z,-0.20251260697841644,1.2200238704681396,9.899023056030273,-0.0013022050261497498,-0.0007842173799872398,0.0008510900661349297,0,1969,44
2026-05-03T13:49:34.406Z,-0.17831158638000488,1.2390899658203125,9.918098449707031,-0.00010311603546142578,0.000681326724588871,0.0009843213483691216,0,1961,44
2026-05-03T13:49:34.506Z,-0.21703322231769562,1.2104908227920532,9.875177383422852,-0.0003695860505104065,-0.0009174477308988571,0.0001849341206252575,0,1965,44
2026-05-03T13:49:34.606Z,-0.19283220171928406,1.2438565492630005,9.903791427612305,-0.0013022050261497498,-0.000517754815518856,0.000451396219432354,0,1962,44
2026-05-03T13:49:34.706Z,-0.20251260697841644,1.2247904539108276,9.889483451843262,-0.0009025111794471741,-0.000517754815518856,-8.15284438431263e-05,0,1960,44
2026-05-03T13:49:34.806Z,-0.21703322231769562,1.229556918144226,9.889483451843262,-0.001035742461681366,0.00014840252697467804,-0.000481222290545702,0,1963,44
2026-05-03T13:49:34.906Z,-0.19767239689826965,1.229556918144226,9.903791427612305,0.000296570360660553,-0.0007842173799872398,-0.0003479910083115101,0,1963,44
2026-05-03T13:49:35.006Z,-0.20735281705856323,1.234323501586914,9.889483451843262,-0.0003695860505104065,1.5171244740486145e-05,0.0001849341206252575,0,1961,44
2026-05-03T13:49:35.106Z,-0.18315178155899048,1.2390899658203125,9.94194221496582,-0.0002363547682762146,-0.00025129131972789764,-8.15284438431263e-05,0,1961,44
2026-05-03T13:49:35.206Z,-0.20735281705856323,1.2390899658203125,9.90855884552002,-0.0007692724466323853,-0.0007842173799872398,0.0001849341206252575,0,1962,44
2026-05-03T13:49:35.306Z,-0.17831158638000488,1.234323501586914,9.913329124450684,-0.0005028173327445984,-0.0013171415776014328,-0.0015470720827579498,0,1963,44
2026-05-03T13:49:35.406Z,-0.18315178155899048,1.2247904539108276,9.89425277709961,-0.0013022050261497498,-0.0009174477308988571,-0.0002147597260773182,0,1967,44
2026-05-03T13:49:35.506Z,-0.21219301223754883,1.2390899658203125,9.875177383422852,-0.0013022050261497498,-0.0013171415776014328,5.17028383910656e-05,0,1966,44
2026-05-03T13:49:35.606Z,-0.20251260697841644,1.2247904539108276,9.913329124450684,-0.00010311603546142578,-0.0006509851664304733,-0.0003479910083115101,0,1964,44
2026-05-03T13:49:35.706Z,-0.226713627576828,1.2390899658203125,9.889483451843262,0.00016333907842636108,-0.000517754815518856,-0.0002147597260773182,0,1965,44
2026-05-03T13:49:35.806Z,-0.19283220171928406,1.229556918144226,9.870407104492188,-0.0009025111794471741,-0.00038452260196208954,0.0001849341206252575,0,1957,44
2026-05-03T13:49:35.906Z,-0.19283220171928406,1.2390899658203125,9.922866821289062,-0.00010311603546142578,0.00014840252697467804,0.0007178592495620251,0,1959,44
2026-05-03T13:49:36.006Z,-0.20251260697841644,1.234323501586914,9.88471508026123,-0.0018351301550865173,0.00014840252697467804,0.0001849341206252575,0,1962,44
2026-05-03T13:49:36.106Z,-0.21219301223754883,1.229556918144226,9.88471508026123,-0.0006360486149787903,-0.0007842173799872398,0.0008510900661349297,0,1966,44
2026-05-03T13:49:36.206Z,-0.1734713762998581,1.253389596939087,9.90855884552002,-0.00010311603546142578,-0.000517754815518856,0.000451396219432354,0,1964,44
2026-05-03T13:49:36.306Z,-0.20735281705856323,1.229556918144226,9.889483451843262,-0.0003695860505104065,0.00014840252697467804,0.0005846279673278332,0,1963,44
2026-05-03T13:49:36.406Z,-0.20251260697841644,1.229556918144226,9.927635192871094,-0.001035742461681366,-0.0013171415776014328,0.0003181654028594494,0,1960,44
2026-05-03T13:49:36.506Z,-0.20735281705856323,1.234323501586914,9.8799467086792,-0.0005028173327445984,-0.0006509851664304733,0.000451396219432354,0,1957,44
2026-05-03T13:49:36.606Z,-0.17831158638000488,1.229556918144226,9.922866821289062,-0.0005028173327445984,-0.0007842173799872398,0.0001849341206252575,0,1960,44
2026-05-03T13:49:36.706Z,-0.19283220171928406,1.229556918144226,9.913329124450684,-0.0009025111794471741,-0.0009174477308988571,0.0003181654028594494,0,1968,44
2026-05-03T13:49:36.806Z,-0.21219301223754883,1.229556918144226,9.899023056030273,-0.0009025111794471741,-0.0011839112266898155,0.0001849341206252575,0,1960,44
2026-05-03T13:49:36.906Z,-0.18315178155899048,1.2438565492630005,9.870407104492188,-0.00010311603546142578,-0.00025129131972789764,-0.0003479910083115101,0,1967,44
2026-05-03T13:49:37.006Z,-0.21703322231769562,1.229556918144226,9.903791427612305,-0.0006360486149787903,0.0002816328778862953,-0.0003479910083115101,0,1977,44
2026-05-03T13:49:37.106Z,-0.17831158638000488,1.234323501586914,9.903791427612305,-0.0013022050261497498,-0.00011806096881628036,0.0007178592495620251,0,1966,44
2026-05-03T13:49:37.206Z,-0.21703322231769562,1.234323501586914,9.913329124450684,-0.0002363547682762146,-0.00025129131972789764,0.0003181654028594494,0,1960,44
2026-05-03T13:49:37.306Z,-0.20251260697841644,1.229556918144226,9.899023056030273,-0.0009025111794471741,-0.001050679013133049,-0.000481222290545702,0,1967,44
2026-05-03T13:49:37.406Z,-0.19767239689826965,1.229556918144226,9.875177383422852,-0.0005028173327445984,-0.0009174477308988571,-0.0007476843893527985,0,1967,44
2026-05-03T13:49:37.506Z,-0.17831158638000488,1.2438565492630005,9.932404518127441,-0.001035742461681366,-0.0006509851664304733,5.17028383910656e-05,0,1954,44
2026-05-03T13:49:37.606Z,-0.18799199163913727,1.234323501586914,9.89425277709961,-0.0014354288578033447,-0.00038452260196208954,-0.0003479910083115101,0,1965,44
2026-05-03T13:49:37.706Z,-0.20251260697841644,1.229556918144226,9.913329124450684,-0.0011689737439155579,0.0005480954423546791,5.17028383910656e-05,0,1970,44
2026-05-03T13:49:37.806Z,-0.20735281705856323,1.234323501586914,9.918098449707031,-0.0005028173327445984,0.0002816328778862953,0.0003181654028594494,0,1965,44
2026-05-03T13:49:37.906Z,-0.20735281705856323,1.234323501586914,9.889483451843262,-0.0009025111794471741,-0.00038452260196208954,0.0003181654028594494,0,1969,44
2026-05-03T13:49:38.006Z,-0.20251260697841644,1.2486231327056885,9.932404518127441,-0.0009025111794471741,-0.0007842173799872398,0.000451396219432354,0,1966,44
2026-05-03T13:49:38.106Z,-0.20735281705856323,1.2247904539108276,9.918098449707031,-0.0009025111794471741,-0.000517754815518856,0.0003181654028594494,0,1967,44
2026-05-03T13:49:38.206Z,-0.226713627576828,1.229556918144226,9.89425277709961,-0.0011689737439155579,-0.0013171415776014328,5.17028383910656e-05,0,1971,44
2026-05-03T13:49:38.306Z,-0.19767239689826965,1.2438565492630005,9.903791427612305,-0.0006360486149787903,-0.0009174477308988571,0.0001849341206252575,0,1964,44
2026-05-03T13:49:38.406Z,-0.18799199163913727,1.234323501586914,9.88471508026123,-0.0009025111794471741,0.00014840252697467804,0.0005846279673278332,0,1968,45
2026-05-03T13:49:38.506Z,-0.19283220171928406,1.2486231327056885,9.903791427612305,-0.0011689737439155579,-0.000517754815518856,0.0001849341206252575,0,1967,44
2026-05-03T13:49:38.606Z,-0.19767239689826965,1.229556918144226,9.88471508026123,-0.0013022050261497498,-0.0007842173799872398,0.0005846279673278332,0,1963,44
2026-05-03T13:49:38.706Z,-0.18315178155899048,1.234323501586914,9.922866821289062,3.010779619216919e-05,-0.0015836041420698166,-0.0003479910083115101,0,1964,44
2026-05-03T13:49:38.806Z,-0.18799199163913727,1.234323501586914,9.89425277709961,-0.0013022050261497498,1.5171244740486145e-05,0.0001849341206252575,0,1970,44
2026-05-03T13:49:38.906Z,-0.18315178155899048,1.2438565492630005,9.927635192871094,-0.0013022050261497498,-0.0006509851664304733,0.0001849341206252575,0,1965,44
2026-05-03T13:49:39.006Z,-0.21219301223754883,1.229556918144226,9.913329124450684,-0.0007692724466323853,-0.00038452260196208954,5.17028383910656e-05,0,1967,44
2026-05-03T13:49:39.106Z,-0.20251260697841644,1.2438565492630005,9.899023056030273,-0.0003695860505104065,-0.0009174477308988571,0.0005846279673278332,0,1965,44
2026-05-03T13:49:39.206Z,-0.20735281705856323,1.229556918144226,9.918098449707031,-0.0011689737439155579,0.0002816328778862953,-0.0002147597260773182,0,1963,44
2026-05-03T13:49:39.306Z,-0.19767239689826965,1.2390899658203125,9.913329124450684,-0.0007692724466323853,-0.0011839112266898155,-8.15284438431263e-05,0,1964,44
2026-05-03T13:49:39.406Z,-0.18799199163913727,1.2247904539108276,9.90855884552002,-0.0002363547682762146,-0.0018500667065382004,0.0005846279673278332,0,1964,44
2026-05-03T13:49:39.506Z,-0.18799199163913727,1.234323501586914,9.903791427612305,-0.0006360486149787903,-0.0009174477308988571,-0.000481222290545702,0,1964,44
2026-05-03T13:49:39.606Z,-0.20251260697841644,1.2104908227920532,9.875177383422852,-0.0007692724466323853,-0.0011839112266898155,5.17028383910656e-05,0,1966,44
2026-05-03T13:49:39.706Z,-0.21703322231769562,1.2486231327056885,9.899023056030273,-0.0003695860505104065,-0.00038452260196208954,-0.000481222290545702,0,1961,44
2026-05-03T13:49:39.806Z,-0.19283220171928406,1.2390899658203125,9.913329124450684,-0.0006360486149787903,-0.000517754815518856,-8.15284438431263e-05,0,1968,44
2026-05-03T13:49:39.906Z,-0.19767239689826965,1.2104908227920532,9.89425277709961,-0.0002363547682762146,-0.0007842173799872398,-8.15284438431263e-05,0,1972,44
2026-05-03T13:49:40.006Z,-0.19283220171928406,1.234323501586914,9.899023056030273,-0.0003695860505104065,-0.001050679013133049,0.0003181654028594494,0,1960,44
2026-05-03T13:49:40.106Z,-0.20251260697841644,1.2390899658203125,9.875177383422852,-0.0006360486149787903,-0.0006509851664304733,-0.0003479910083115101,0,1966,44
2026-05-03T13:49:40.206Z,-0.19767239689826965,1.229556918144226,9.927635192871094,-0.0002363547682762146,-0.001050679013133049,0.0001849341206252575,0,1961,44
2026-05-03T13:49:40.306Z,-0.226713627576828,1.2247904539108276,9.88471508026123,-0.0007692724466323853,-0.001050679013133049,5.17028383910656e-05,0,1960,44
2026-05-03T13:49:40.406Z,-0.20735281705856323,1.258156180381775,9.922866821289062,3.010779619216919e-05,-0.000517754815518856,0.0008510900661349297,0,1966,44
2026-05-03T13:49:40.506Z,-0.20251260697841644,1.234323501586914,9.8799467086792,-0.00010311603546142578,-0.0007842173799872398,0.0003181654028594494,0,1965,44
2026-05-03T13:49:40.606Z,-0.20251260697841644,1.2247904539108276,9.90855884552002,-0.0005028173327445984,-0.0015836041420698166,0.0005846279673278332,0,1964,45
2026-05-03T13:49:40.706Z,-0.1637909710407257,1.229556918144226,9.913329124450684,-0.0011689737439155579,-0.0011839112266898155,0.000451396219432354,0,1963,44
2026-05-03T13:49:40.806Z,-0.226713627576828,1.2390899658203125,9.899023056030273,-0.0015686675906181335,-0.0006509851664304733,0.000451396219432354,0,1971,44
2026-05-03T13:49:40.906Z,-0.19767239689826965,1.229556918144226,9.922866821289062,-0.001035742461681366,-0.00038452260196208954,-8.15284438431263e-05,0,1964,44
2026-05-03T13:49:41.006Z,-0.21219301223754883,1.2438565492630005,9.90855884552002,-0.0007692724466323853,1.5171244740486145e-05,0.0009843213483691216,0,1971,44
2026-05-03T13:49:41.106Z,-0.1686311662197113,1.234323501586914,9.90855884552002,-0.0005028173327445984,-0.00025129131972789764,0.0008510900661349297,0,1965,45
2026-05-03T13:49:41.206Z,-0.226713627576828,1.229556918144226,9.903791427612305,-0.0014354288578033447,-0.0007842173799872398,0.0001849341206252575,0,1963,44
2026-05-03T13:49:41.306Z,-0.21219301223754883,1.234323501586914,9.88471508026123,-0.0006360486149787903,-0.0007842173799872398,-0.0002147597260773182,0,1960,44
2026-05-03T13:49:41.406Z,-0.19767239689826965,1.234323501586914,9.903791427612305,-0.0011689737439155579,-0.0009174477308988571,-0.000481222290545702,0,1968,45
2026-05-03T13:49:41.506Z,-0.19283220171928406,1.229556918144226,9.870407104492188,-0.0006360486149787903,-0.0007842173799872398,-8.15284438431263e-05,0,1967,45
2026-05-03T13:49:41.606Z,-0.1734713762998581,1.2152574062347412,9.889483451843262,-0.0006360486149787903,-0.000517754815518856,-0.0006144531071186066,0,1962,44
2026-05-03T13:49:41.706Z,-0.21219301223754883,1.2200238704681396,9.889483451843262,-0.0013022050261497498,-0.0014503728598356247,0.000451396219432354,0,1964,44
2026-05-03T13:49:41.806Z,-0.20251260697841644,1.2200238704681396,9.903791427612305,3.010779619216919e-05,-0.000517754815518856,-0.0002147597260773182,0,1960,44
2026-05-03T13:49:41.906Z,-0.21703322231769562,1.253389596939087,9.89425277709961,-0.0009025111794471741,1.5171244740486145e-05,0.000451396219432354,0,1961,44
2026-05-03T13:49:42.006Z,-0.19767239689826965,1.234323501586914,9.889483451843262,-0.0009025111794471741,0.0002816328778862953,-8.15284438431263e-05,0,1960,44
2026-05-03T13:49:42.106Z,-0.21219301223754883,1.2247904539108276,9.903791427612305,-0.001035742461681366,-0.000517754815518856,-0.0002147597260773182,0,1960,45
2026-05-03T13:49:42.206Z,-0.20251260697841644,1.2390899658203125,9.89425277709961,-0.0002363547682762146,-0.001050679013133049,5.17028383910656e-05,0,1967,44
2026-05-03T13:49:42.306Z,-0.19283220171928406,1.2200238704681396,9.899023056030273,-0.0006360486149787903,-0.0009174477308988571,-0.000481222290545702,0,1968,44
2026-05-03T13:49:42.406Z,-0.19283220171928406,1.2247904539108276,9.89425277709961,-0.0009025111794471741,-0.000517754815518856,-0.0003479910083115101,0,1966,44
2026-05-03T13:49:42.506Z,-0.18315178155899048,1.2438565492630005,9.889483451843262,-0.0006360486149787903,-0.000517754815518856,-0.0003479910083115101,0,1962,45
2026-05-03T13:49:42.606Z,-0.226713627576828,1.234323501586914,9.90855884552002,-0.001035742461681366,-0.00011806096881628036,0.0001849341206252575,0,1963,45
2026-05-03T13:49:42.706Z,-0.18315178155899048,1.2390899658203125,9.90855884552002,0.00016333907842636108,-0.0007842173799872398,5.17028383910656e-05,0,1968,45
2026-05-03T13:49:42.806Z,-0.20735281705856323,1.2247904539108276,9.88471508026123,-0.0005028173327445984,-0.001050679013133049,0.0005846279673278332,0,1965,45
2026-05-03T13:49:42.906Z,-0.19767239689826965,1.2247904539108276,9.94194221496582,-0.0009025111794471741,1.5171244740486145e-05,0.0005846279673278332,0,1965,45
2026-05-03T13:49:43.006Z,-0.226713627576828,1.229556918144226,9.922866821289062,-0.0011689737439155579,0.00014840252697467804,0.0009843213483691216,0,1965,44
2026-05-03T13:49:43.106Z,-0.2315538376569748,1.2486231327056885,9.899023056030273,-0.0007692724466323853,-0.0009174477308988571,0.0008510900661349297,0,1965,44
2026-05-03T13:49:43.206Z,-0.19283220171928406,1.2438565492630005,9.913329124450684,-0.0015686675906181335,-0.000517754815518856,0.0003181654028594494,0,1968,45
2026-05-03T13:49:43.306Z,-0.19283220171928406,1.253389596939087,9.918098449707031,-0.0013022050261497498,-0.0006509851664304733,0.0001849341206252575,0,1963,44
2026-05-03T13:49:43.406Z,-0.17831158638000488,1.2438565492630005,9.918098449707031,-0.001035742461681366,-0.000517754815518856,0.0007178592495620251,0,1959,44
2026-05-03T13:49:43.506Z,-0.20251260697841644,1.2486231327056885,9.89425277709961,-0.0011689737439155579,-0.000517754815518856,0.0012507843784987926,0,1961,44
2026-05-03T13:49:43.606Z,-0.18315178155899048,1.234323501586914,9.89425277709961,-0.0009025111794471741,-0.0007842173799872398,0.0003181654028594494,0,1964,45
2026-05-03T13:49:43.706Z,-0.20735281705856323,1.2247904539108276,9.90855884552002,-0.0011689737439155579,-0.000517754815518856,5.17028383910656e-05,0,1963,44
2026-05-03T13:49:43.806Z,-0.21219301223754883,1.2152574062347412,9.90855884552002,-0.0003695860505104065,-0.0009174477308988571,-0.0003479910083115101,0,1965,44
2026-05-03T13:49:43.906Z,-0.19767239689826965,1.234323501586914,9.913329124450684,-0.00010311603546142578,-0.00011806096881628036,0.000451396219432354,0,1967,44
2026-05-03T13:49:44.006Z,-0.20251260697841644,1.253389596939087,9.899023056030273,-0.0009025111794471741,-0.001050679013133049,5.17028383910656e-05,0,1963,44
2026-05-03T13:49:44.106Z,-0.19767239689826965,1.2486231327056885,9.899023056030273,-0.0003695860505104065,-0.00025129131972789764,-0.0007476843893527985,0,1963,44
2026-05-03T13:49:44.206Z,-0.20735281705856323,1.2438565492630005,9.899023056030273,-0.0015686675906181335,-0.0009174477308988571,-0.0002147597260773182,0,1957,45
2026-05-03T13:49:44.306Z,-0.20735281705856323,1.234323501586914,9.90855884552002,-0.0007692724466323853,-0.0009174477308988571,0.0005846279673278332,0,1960,44
2026-05-03T13:49:44.406Z,-0.4009610116481781,1.0722613334655762,9.999170303344727,3.010779619216919e-05,-0.003981766290962696,-0.025661924853920937,0,1961,44
2026-05-03T13:49:44.506Z,-0.226713627576828,1.1485258340835571,9.927635192871094,-0.010761618614196777,0.06849603354930878,0.04308539256453514,0,1979,44
2026-05-03T13:49:44.606Z,-0.9769464135169983,1.2104908227920532,9.999170303344727,0.009089834988117218,-0.03835542872548103,-0.009940640069544315,0,1970,45
2026-05-03T13:49:44.706Z,0.13630175590515137,1.1961911916732788,9.937174797058105,-0.0014354288578033447,-0.002649453468620777,0.004848028067499399,0,1957,45
2026-05-03T13:49:44.806Z,0.04917806759476662,1.3344206809997559,9.89425277709961,-0.010095462203025818,0.03172420710325241,0.012175746262073517,0,1956,45
2026-05-03T13:49:44.906Z,-0.43968266248703003,1.310588002204895,9.889483451843262,0.004426740109920502,-0.021834753453731537,-0.008475096896290779,0,1974,44
2026-05-03T13:49:45.006Z,0.07821929454803467,1.2867553234100342,9.889483451843262,0.0008294954895973206,-0.010643328540027142,-0.007409246638417244,0,1975,45
2026-05-03T13:49:45.106Z,-0.25575485825538635,1.2486231327056885,9.90855884552002,-0.003300674259662628,0.015203531831502914,0.013241596519947052,0,1970,45
2026-05-03T13:49:45.206Z,-0.30899712443351746,1.2104908227920532,9.903791427612305,0.0037605836987495422,-0.009977172128856182,0.0052477209828794,0,1964,45
2026-05-03T13:49:45.306Z,0.0636986792087555,1.2104908227920532,9.927635192871094,0.0020285770297050476,0.00374564528465271,0.005514183547347784,0,1955,45
2026-05-03T13:49:45.406Z,-0.24607445299625397,-0.043108608573675156,10.528524398803711,-0.012227170169353485,0.09514227509498596,-0.068295918405056,0,1976,44
2026-05-03T13:49:45.506Z,2.7935774326324463,0.08558781445026398,10.275771141052246,-0.04939868301153183,0.023597100749611855,-0.1062668189406395,0,2006,44
2026-05-03T13:49:45.606Z,3.8971450328826904,0.5336429476737976,8.611403465270996,0.008023984730243683,-0.04501698911190033,-0.029125938192009926,0,1990,44
2026-05-03T13:49:45.706Z,2.9823453426361084,1.7729427814483643,9.484123229980469,-0.011694245040416718,0.059835996478796005,0.027364106848835945,0,1973,44
2026-05-03T13:49:45.806Z,3.9552276134490967,2.8835461139678955,8.93569278717041,0.010022453963756561,-0.028496313840150833,0.053210966289043427,0,1953,44
2026-05-03T13:49:45.906Z,1.820695161819458,0.34298065304756165,9.870407104492188,-0.013559482991695404,0.027194343507289886,-0.007675709202885628,0,1958,44
2026-05-03T13:49:46.006Z,0.14598217606544495,1.5727483034133911,11.167566299438477,-0.006364993751049042,-0.0006509851664304733,0.005114489700645208,0,1920,44
2026-05-03T13:49:46.106Z,-3.6632628440856934,-1.048848271369934,10.280539512634277,0.038001012057065964,-0.03582403436303139,-0.008475096896290779,0,1971,44
2026-05-03T13:49:46.206Z,-1.189915418624878,1.963604211807251,10.094549179077148,-0.011294543743133545,-0.10856828838586807,-0.11466038972139359,0,1957,44
2026-05-03T13:49:46.306Z,-3.305087089538574,-0.014509402215480804,10.943425178527832,0.012020919471979141,0.037453148514032364,0.057207901030778885,0,1974,44
2026-05-03T13:49:46.406Z,-1.494848370552063,0.5860748291015625,10.561908721923828,-0.25657325983047485,-0.0015836041420698166,-0.019932983443140984,0,2066,44
2026-05-03T13:49:46.506Z,1.6948497295379639,1.8587404489517212,8.950000762939453,-0.5659361481666565,0.01840108260512352,-0.03405549377202988,0,2248,44
2026-05-03T13:49:46.606Z,-1.364162802696228,-0.14797236025333405,10.29484748840332,-0.8896880745887756,-0.10776890069246292,0.04428447037935257,3,2962,44
2026-05-03T13:49:46.706Z,0.37347182631492615,-1.4635376930236816,10.509449005126953,-0.4437631368637085,-0.04235236719250679,0.07559381425380707,3,3458,44
2026-05-03T13:49:46.806Z,-0.5848888158798218,-2.0545878410339355,10.910040855407715,0.37427663803100586,-0.07725894451141357,0.0035157152451574802,6,3923,44
2026-05-03T13:49:46.906Z,-2.3564059734344482,2.316328525543213,11.658767700195312,1.2201619148254395,0.11739189922809601,0.05734113231301308,8,2970,44
2026-05-03T13:49:47.006Z,-2.1482770442962646,-0.6770585775375366,10.023014068603516,0.362419068813324,-0.0009174477308988571,-0.017268359661102295,12,5101,44
2026-05-03T13:49:47.106Z,1.6996899843215942,1.096094012260437,8.3920316696167,-0.02568352222442627,0.07609020918607712,-0.062034059315919876,15,3514,44
2026-05-03T13:49:47.206Z,-0.5219661593437195,0.21905076503753662,8.969076156616211,-0.161979079246521,-0.03968774154782295,0.003915408160537481,18,4306,44
2026-05-03T13:49:47.306Z,-0.2944765090942383,0.44307786226272583,9.665343284606934,-0.17863298952579498,-0.010110405273735523,-0.030991174280643463,18,6044,44
2026-05-03T13:49:47.406Z,1.7722930908203125,0.7767361998558044,9.58903980255127,-0.08363911509513855,-0.04341821372509003,-0.02326376363635063,19,6926,43
2026-05-03T13:49:47.506Z,-0.817219614982605,-0.25283610820770264,10.49514102935791,-0.03127922862768173,-0.021568290889263153,-0.03552103787660599,19,6805,44
2026-05-03T13:49:47.606Z,-3.155040740966797,0.34298065304756165,11.01972770690918,-0.008496694266796112,-0.01117625366896391,-0.07136023789644241,20,9587,44
2026-05-03T13:49:47.706Z,-1.9885503053665161,0.0426890067756176,10.38068675994873,0.049325667321681976,-0.03342587128281593,-0.027793625369668007,21,9993,43
2026-05-03T13:49:47.806Z,-1.2673587799072266,0.39541253447532654,10.62390422821045,-0.03540940582752228,0.022131556645035744,-0.01127295196056366,23,8831,43
2026-05-03T13:49:47.906Z,-0.8656216859817505,0.7433704733848572,10.36638069152832,-0.08190709352493286,-0.019703052937984467,-0.04111675173044205,24,10386,43
2026-05-03T13:49:48.006Z,-1.3883638381958008,-0.662759006023407,10.604827880859375,-0.002368055284023285,-0.06167088821530342,-0.05137556046247482,28,10320,43
2026-05-03T13:49:48.106Z,3.3405206203460693,1.6347132921218872,9.164602279663086,-0.06112302839756012,-0.012375335209071636,-0.05497279763221741,30,10987,43
2026-05-03T13:49:48.206Z,3.1759536266326904,0.5384095311164856,9.422127723693848,-0.08004187047481537,0.06276708096265793,0.026165025308728218,33,9076,43
2026-05-03T13:49:48.306Z,2.1595094203948975,2.078001022338867,9.741646766662598,-0.07884277403354645,0.046512871980667114,0.055875591933727264,36,7708,43
2026-05-03T13:49:48.406Z,-2.8743088245391846,-0.5960274934768677,10.995882034301758,-0.06378765404224396,0.08754809945821762,0.045350320637226105,38,7985,43
2026-05-03T13:49:48.506Z,-2.700061321258545,0.7862693071365356,10.557138442993164,-0.037008173763751984,-0.06446874886751175,-0.07895442098379135,42,7829,43
2026-05-03T13:49:48.606Z,-0.12506932020187378,0.8339346051216125,10.642979621887207,0.039599787443876266,-0.013041489757597446,-0.025129001587629318,46,6623,43
2026-05-03T13:49:48.706Z,0.02981724590063095,-1.206143856048584,10.328228950500488,0.010821837931871414,0.01840108260512352,0.021235469728708267,50,5171,43
2026-05-03T13:49:48.806Z,-1.3883638381958008,0.2667161226272583,10.452221870422363,-0.02501736581325531,-0.05487610027194023,-0.044980455189943314,55,4329,43
2026-05-03T13:49:48.906Z,1.351195216178894,1.1675920486450195,9.913329124450684,-0.032078616321086884,0.02679464966058731,0.03242689371109009,60,3776,43
2026-05-03T13:49:49.006Z,-1.7126585245132446,1.2200238704681396,10.204236030578613,0.014552313834428787,0.04691256582736969,0.060671914368867874,64,3384,43
2026-05-03T13:49:49.106Z,0.31054913997650146,0.6957051157951355,8.845081329345703,0.057586003094911575,-0.026764310896396637,0.007779114414006472,68,2925,43
2026-05-03T13:49:49.206Z,-2.462890863418579,-1.1108132600784302,8.768777847290039,-0.012227170169353485,-0.05141208693385124,-0.044580765068531036,72,2755,43
2026-05-03T13:49:49.306Z,0.702606737613678,0.35251373052597046,9.040609359741211,-0.08230680227279663,-0.04328498616814613,-0.04644600301980972,73,3328,43
2026-05-03T13:49:49.406Z,-1.794942021369934,0.8148685097694397,11.134182929992676,-0.1537187397480011,-0.035557571798563004,-0.0468456968665123,75,3554,43
2026-05-03T13:49:49.506Z,2.464442491531372,0.9149656891822815,10.447453498840332,0.0004298016428947449,0.035321447998285294,0.05401035398244858,76,3813,43
2026-05-03T13:49:49.606Z,-1.431925654411316,0.8148685097694397,11.348784446716309,0.08782949298620224,-0.028762780129909515,-0.0700279250741005,78,3325,43
2026-05-03T13:49:49.706Z,2.019143581390381,1.8301411867141724,10.023014068603516,0.07423990964889526,0.04411471262574196,0.07426150143146515,81,2819,43
2026-05-03T13:49:49.806Z,-3.024355173110962,-0.7390235662460327,10.929117202758789,0.05505461245775223,-0.017571352422237396,-0.024862537160515785,84,2468,43
2026-05-03T13:49:49.906Z,1.2205086946487427,0.6861720681190491,9.88471508026123,0.00149565190076828,-0.0717964693903923,-0.09427601099014282,89,2182,43
2026-05-03T13:49:50.006Z,3.379242181777954,0.767203152179718,9.33151626586914,0.007890753448009491,0.08554963022470474,0.08265507221221924,94,1952,43
2026-05-03T13:49:50.106Z,2.440242290496826,1.6108806133270264,9.054915428161621,-0.02714906632900238,0.06263385713100433,0.06200422719120979,99,1756,43
2026-05-03T13:49:50.206Z,1.259230375289917,-0.3958321213722229,8.783085823059082,0.049858592450618744,0.05130919814109802,0.027364106848835945,103,1490,43
2026-05-03T13:49:50.306Z,-1.3738431930541992,0.1570858210325241,8.8880033493042,0.025477275252342224,-0.03862188756465912,-0.019932983443140984,107,1345,43
2026-05-03T13:49:50.406Z,-0.6526526808738708,1.229556918144226,9.183677673339844,-0.05992394685745239,0.023064173758029938,0.04161984845995903,110,1474,43
2026-05-03T13:49:50.506Z,1.0801427364349365,0.2047511637210846,8.716320991516113,-0.01649056375026703,-0.039820969104766846,-0.04577984660863876,112,1483,43
2026-05-03T13:49:50.606Z,0.044337861239910126,0.3858794569969177,9.197985649108887,-0.030080147087574005,0.06223415955901146,0.03895522281527519,113,1480,43
2026-05-03T13:49:50.706Z,1.3221529722213745,0.7481369972229004,8.954768180847168,-0.013692706823348999,0.03931838646531105,0.021635163575410843,112,1565,43
2026-05-03T13:49:50.806Z,1.9126590490341187,-0.08600741624832153,9.26952075958252,-0.04646759480237961,-0.022367678582668304,-0.051508788019418716,112,1594,43
2026-05-03T13:49:50.906Z,-0.5219661593437195,0.08558781445026398,10.07547378540039,-0.028348147869110107,-0.02822985127568245,-0.05164201930165291,111,1619,43
2026-05-03T13:49:51.006Z,-1.882065773010254,0.5574756264686584,10.690669059753418,0.0009627267718315125,-0.055142562836408615,-0.054306644946336746,111,1626,43
2026-05-03T13:49:51.106Z,2.3627991676330566,1.5298495292663574,9.20752239227295,0.007757522165775299,-0.03862188756465912,-0.06696360558271408,109,1607,43
2026-05-03T13:49:51.206Z,2.082066297531128,0.8005688786506653,9.374436378479004,0.05238998681306839,-0.05287763103842735,-0.03498811274766922,108,1497,42
2026-05-03T13:49:51.306Z,0.571921169757843,1.5679818391799927,10.170852661132812,0.28221386671066284,-0.04102005437016487,0.044151242822408676,108,1315,43
2026-05-03T13:49:51.406Z,0.42187386751174927,2.5784881114959717,9.903791427612305,-0.045534975826740265,0.042382705956697464,0.04561678320169449,107,1286,42
2026-05-03T13:49:51.506Z,-0.32351773977279663,-1.3157742023468018,10.304383277893066,-0.07671108841896057,0.05530613288283348,0.0404207669198513,107,1364,42
2026-05-03T13:49:51.606Z,-1.398044228553772,-0.9344514608383179,10.614365577697754,-0.011827468872070312,-0.0022497596219182014,0.006846496369689703,107,1403,43
2026-05-03T13:49:51.706Z,-1.7368590831756592,0.1570858210325241,10.681131362915039,-0.017423182725906372,0.0253291055560112,0.0013840151950716972,107,1508,42
2026-05-03T13:49:51.806Z,-1.3932040929794312,-1.0869805812835693,10.194698333740234,0.01055537536740303,0.02039954997599125,0.01164282113313675,107,1462,42
2026-05-03T13:49:51.906Z,-1.55777108669281,-1.3300737142562866,10.194698333740234,0.021880030632019043,-0.020102746784687042,-0.029792094603180885,106,1462,42
2026-05-03T13:49:52.006Z,-1.417405128479004,-0.6532258987426758,10.280539512634277,0.016017857939004898,-0.04275205731391907,-0.018067745491862297,108,1534,42
2026-05-03T13:49:52.106Z,-3.285726308822632,0.18091849982738495,10.185160636901855,0.01335323229432106,-0.014906727708876133,0.0035157152451574802,107,1613,42
2026-05-03T13:49:52.206Z,-3.0630767345428467,-0.20517076551914215,10.256695747375488,0.0686441957950592,-0.07699248194694519,-0.031790561974048615,106,1581,42
2026-05-03T13:49:52.306Z,-3.0049943923950195,-0.37676599621772766,10.418837547302246,0.013220001012086868,-0.025698460638523102,-0.01273849606513977,105,1619,42
